time_imu,phone_acc_x,phone_acc_y,phone_acc_z,phone_gravity_x,phone_gravity_y,phone_gravity_z,phone_gyro_x,phone_gyro_y,phone_gyro_z,phone_ori_w,phone_ori_x,phone_ori_y,phone_ori_z,watch_gyro_x,watch_gyro_y,watch_gyro_z,watch_acc_x,watch_acc_y,watch_acc_z,headphone_gyro_x,headphone_gyro_y,headphone_gyro_z,headphone_acc_x,headphone_acc_y,headphone_acc_z,frame_imu
1734086755593337900,0.4429682236611842,10.848754329633712,-3.464947562384605,-0.2560707104347646,9.80273078072965,-0.1061536686791107,-1.7679448127746582,-0.1310508698225021,0.1604067087173462,0.4825733737332017,0.5011637671409602,-0.5042293222746581,-0.5115765232851207,1.9650163650512693,1.3657103776931765,-1.0090755224227903,-0.8123289942741394,0.7502707242965698,-0.4540454745292663,0.12334805727005,0.0348219871520996,0.5019955821692943,0.0546253025531768,-0.007844302025903,0.1287524905107915,0
1734086755633337900,1.5726139124952256,4.914354343536496,-4.163610795035958,-0.2231818373928777,9.774820445019008,0.7572603830486535,-2.499633312225342,-0.0949916020035743,-0.0422564186155796,0.5034525737192587,0.4771278758979481,-0.4834660862598094,-0.5339896604340991,2.609325170516968,1.0144516229629517,-1.5401402711868286,-0.3975906372070312,0.6470009088516235,-0.0336809754371643,0.0349331423640251,-0.0667968913912773,0.4766781855612993,0.2160459607839584,0.3923318960752338,0.4017243591248989,1
1734086755673337900,1.9979490104407072,-4.829236265960335,-3.3643811557859182,-0.278612906708382,9.636643561950326,1.7966279811948538,-2.704237699508667,0.1529539972543716,-0.2545656263828277,0.5279236244317738,0.4518774834970449,-0.4518895980399798,-0.5593739641807023,2.338409662246704,0.3441629111766815,-1.616666316986084,0.42792809009552,0.0981123447418212,0.5352675914764404,0.0041920654475688,-0.129934012889862,0.0097135847628116,0.2743695974349975,0.3671305635949596,0.3506266976375132,2
1734086755713337900,1.6794754737153648,-12.38214696946144,0.5985860708743334,-0.4246146016512065,9.453889286008476,2.5717861322447657,-1.2251884937286377,-0.1824123710393905,-0.4970501065254211,0.5409094459519151,0.4330721535620537,-0.4258214541986023,-0.5818433818377411,0.8568946719169617,-0.0600285567343235,-1.0703743696212769,0.9806097745895386,-0.4836704134941101,0.8042669296264648,-0.026549007743597,-0.193071112036705,-0.4564700947910547,0.3326932191848755,0.3418340271119028,0.299454655739665,3
1734086755753337900,-0.1108055130729451,-15.617510700190069,0.8319999822124838,-0.5670528319587931,9.3904902882874,2.769028367744386,0.0763539224863052,-0.1061853095889091,-0.3214867711067199,0.5397522544746306,0.4297135329457673,-0.4173309565700874,-0.5914800278429112,-0.0506296381354332,-0.2483093440532684,-0.2509540915489197,1.119532823562622,-0.6741499900817871,0.8470771312713623,-0.0063659707084298,0.167035236954689,-1.273933309867978,0.076187789440155,-0.3999352106858044,-0.3784856684871017,4
1734086755793337900,-0.7242993398196995,-13.401387140858173,1.0560735260143876,-0.6579029869135469,9.44407107182741,2.558721775749325,1.0158971548080444,-0.2827402949333191,-0.2319858223199844,0.5290281087931852,0.4355491469124188,-0.4240736217980362,-0.5921044397479801,-1.152981162071228,-0.1916475743055343,0.688474714756012,0.9293054342269896,-0.7365281581878662,0.7494293451309204,-0.008694976568222,0.3081248700618744,-1.0841647712498903,0.0126228332519531,-0.5685908551810309,0.1741184034131467,5
1734086755833337900,-2.1362369526684284,-9.054911595243215,0.8938806843250989,-0.6175438693225384,9.579541034024952,2.0053481807813047,1.7892035245895386,0.5855799913406372,0.4354530274868011,0.5182960695410703,0.4505357210615487,-0.4413312365525338,-0.5775928696599271,-1.5052173137664795,-0.2445162236690521,1.0600924491882324,0.5362177491188049,-0.2042701542377472,0.6203025579452515,0.060793288052082,0.2522976994514465,0.0903320128321647,0.1555119603872299,-0.0804600683030206,0.8000373754363507,6
1734086755873338000,0.6999433355897665,-1.1632324627459047,-1.7511388803042471,-0.5178343718141317,9.70290028719008,1.325120476269722,1.8129422664642327,0.017190733924508,0.2354010939598083,0.5094264044593624,0.4698554172271929,-0.4600799357941803,-0.5550198293508142,-2.0654423236846924,-0.5663759708404541,1.1222336292266846,0.1570047736167907,-0.1258484125137329,0.1930276155471801,0.1615082025527954,-0.0129986405372619,0.5686725786477327,0.1767881214618683,0.0834182787877973,0.5781085885781795,7
1734086755913337900,0.2114642010649666,5.006409526899457,-0.3384112130563706,-0.4128767079865559,9.782126384118198,0.5567321846809238,2.0930309295654297,-0.4264179170131683,0.278039276599884,0.4908259782663478,0.4846575252411567,-0.4865404821811232,-0.5361673920638557,-2.1822030544281006,-0.784260094165802,0.6938813924789429,-0.3540898561477661,0.3317158818244934,-0.1053086519241333,0.1980089396238327,-0.1576338410377502,0.4253717766940593,0.0587372407317161,0.0705166020407807,0.331731881422922,8
1734086755953337900,-0.0459326982059516,8.446980188396573,-0.9650281042158604,-0.2819232368327677,9.801474643188714,-0.1482757864878047,1.3764272928237915,0.0833767354488372,0.2678665816783905,0.4746055772117598,0.4967256531146832,-0.5107089058664511,-0.5169038047479695,-1.1368699073791504,-0.4177708625793457,0.3022787570953369,-0.7200635075569153,0.6215075850486755,-0.4365407228469848,0.1630209237337112,-0.0784487649798393,0.335600320354104,0.0380787402391433,-0.2089053468950092,0.152817183643952,9
1734086755993337900,0.897278144743666,7.137232053303718,-2.140865196990967,-0.2297450683659873,9.793365571013092,-0.4556459919918328,0.2573514282703399,0.2125004380941391,-0.0065021468326449,0.4702576063889718,0.5049256208856577,-0.5179590699843342,-0.5055951222369208,-0.2797080874443054,-0.2021167278289795,0.1373430490493774,-0.3798540830612182,0.4838418960571289,-0.5068858861923218,0.0854544416069984,-0.0230288095772266,0.1844710167318582,0.0050274357199668,-0.0629442488240543,-0.1248755029469728,10
1734086756033337900,0.9541223139937968,3.915067411366105,-0.1036404072165489,-0.2892825500870123,9.790390354594589,-0.4847350526256486,0.0083832461386919,-0.0356219597160816,-0.2179550230503082,0.4688693272799569,0.5081167958252019,-0.5162673063508867,-0.5054176756159757,-0.0024349440354853,-0.0269249826669693,0.0401207655668258,-0.3111457824707031,0.2530878186225891,-0.2725715935230255,0.045416209846735,-0.0372792817652225,0.1412234111577272,0.0057968706823885,-0.009182089968305,-0.047784226090461,11
1734086756073337900,0.0447993285281583,0.3750988025277852,0.2632137871224433,-0.3484138438936323,9.788884626206755,-0.4761472935549914,-0.045409619808197,-0.0147227393463253,-0.0697530806064605,0.4668366974340232,0.5087303891904698,-0.5152379515986494,-0.5077269836257624,0.2235838174819946,-0.0424784272909164,-0.0403742790222168,-0.074136734008789,0.0650062561035156,-0.0749381184577941,0.0488925129175186,-0.0296078920364379,-0.1742600038409233,-0.0071071223355829,-0.088267244055774,0.0067436290413141,12
1734086756113337900,0.3760977139046415,-1.3109639406234026,0.428183400048688,-0.364425688550435,9.788232299777864,-0.4775636631589383,0.072849690914154,0.1084942519664764,-0.0493483394384384,0.467076881796962,0.5098870544069619,-0.5141635558046096,-0.5074348274114773,0.0973742082715034,-0.0630180612206459,-0.0197562836110591,0.0885576009750366,-0.0555856823921203,0.093917578458786,0.0789196863770484,-0.0141288535669446,-0.2175672306478023,-0.0119226556271314,-0.0496357539749704,0.0668048606418073,13
1734086756153337900,-0.0215667388375848,-1.6630980471491812,0.3258020164499059,-0.3836518556112423,9.78482804429233,-0.5294583202429115,0.1735064387321472,0.0373364835977554,-0.0211795624345541,0.4659270013236469,0.5123424336617615,-0.514295725000121,-0.505882490591074,-0.1073690801858902,-0.1192124634981155,0.1016784608364105,0.1406813859939575,-0.0947059988975524,0.0536930263042449,0.0795559883117675,0.0058095967397093,-0.1764496228396892,0.0037125647068023,-0.0658368649930227,-0.0374066975262016,14
1734086756193337900,-0.2018172152649611,-0.540917141237855,0.7733563623249531,-0.3724918348997831,9.780141347780823,-0.6168351365312934,0.2852039337158203,0.1521112471818924,0.0551094748079776,0.4647617552390679,0.5149861091861487,-0.5159836679569,-0.5025403006585636,-0.1944880038499832,-0.15811687707901,0.1587010025978088,0.0439545512199401,-0.0493906736373901,0.0482182204723358,0.0279420763254165,0.0321340784430503,-0.1217477263152599,-0.0111456699669361,-0.145539730853727,-0.2277406880073249,15
1734086756233337900,-0.0772394166229292,0.9904717575520277,0.2221440370440483,-0.3398006215881556,9.772212892869112,-0.7475210062574594,0.3233995139598846,0.1508616060018539,0.0549890138208866,0.4638270870399057,0.518969248405619,-0.5184437131282166,-0.4967408919822225,-0.1717952042818069,-0.1276162266731262,0.1564530283212661,-0.0554540157318115,0.0339147448539733,-0.0373100042343139,-0.0046836100518703,0.0395753644406795,0.0115939916819334,-0.0555475018918514,0.0173950243772007,-0.2747000806462019,16
1734086756273337900,-0.3873647751871496,3.84226637904942,-0.2093816591698676,-0.315632979537174,9.765030287888646,-0.845563082010299,0.1675890237092971,-0.0437861122190952,0.1137967854738235,0.4625790047011588,0.5214388347692115,-0.5207813945556254,-0.4928580780939834,0.0213894285261631,0.1729071140289306,0.1472709774971008,-0.2100287675857544,0.1790397763252258,-0.1429372429847717,0.0219991281628608,-0.0748458504676818,-0.068535191565752,-0.1272157430648803,0.0289912902146112,-0.1878486034061759,17
1734086756313337900,-3.0805040084064004,9.883315891051293,-3.030781069338321,-0.2176585621930658,9.775025027680396,-0.7562477719400078,-0.8943508863449097,0.2558013498783111,0.4654632210731506,0.4680558581256262,0.5173705502142895,-0.5204667324464222,-0.4923067253482956,1.1153113842010498,1.1237754821777344,0.2073473036289215,-0.7855491638183594,0.5640221238136292,-0.5570289492607117,0.0539732985198497,0.0517192780971527,0.6995505368798971,-0.0418491140007972,-0.2170724694008007,-0.1254532297696918,18
1734086756353337900,-0.188914698267728,11.365331394863128,-4.824480011343955,0.0267074330441537,9.80554700719416,-0.1446849771879147,-2.179152727127075,0.2529513239860534,0.6472951769828796,0.4926140637612589,0.4985525303042383,-0.5087457670621454,-0.4999545774179332,2.5760750770568848,1.5758225917816162,-0.3575471639633178,-0.8659506440162659,0.902771294116974,-0.4794495701789856,0.0424889400601387,-0.0368909910321235,0.8576239605516195,-0.0215918663889169,0.3011789222490042,-0.0342228067930787,19
1734086756393337900,2.4523233019962904,5.673862213250994,-4.966700616845488,0.210028852765914,9.757066761663555,0.9622484103694556,-3.258863687515259,0.0655043572187423,0.2747686505317688,0.5260501941605246,0.4664453274516808,-0.4830815048941448,-0.5218545757826051,3.210723161697388,1.153144121170044,-1.0804704427719116,-0.4849059581756592,0.5938271284103394,-0.0597475171089172,-0.0381775051355361,-0.166396826505661,0.4432552239090204,0.0791632086038589,0.3812686868017539,0.3786100255191326,20
1734086756433337900,2.3095663976609706,-4.008626569551229,-1.9541817649066449,0.234721724267397,9.560780219453571,2.169510568977892,-2.810998678207397,0.0504971779882907,-0.1019722372293472,0.5544816033537608,0.4318610897590097,-0.4504239643599823,-0.5506037240541435,2.518728256225586,0.3147615492343902,-1.5542819499969482,0.238766610622406,0.0907945036888122,0.5180640816688538,-0.0785205364227294,-0.1011014357209205,-0.1470680455327034,0.2957234978675842,0.2724098873497918,0.4291401162516325,21
1734086756473337900,1.0460697991985828,-13.236548460835218,0.5232634111255408,0.1252933630328625,9.34148163496852,2.981847819343209,-1.396894097328186,0.2976666688919067,-0.2954944968223572,0.5719438436293497,0.4121972578229561,-0.4219733250086821,-0.5700107348461516,1.2651493549346924,-0.0244710948318243,-1.2005988359451294,0.8796184062957764,-0.3598159849643707,0.9213898777961732,-0.0655423253774643,-0.0234204083681106,-0.74283204472363,0.3259259164333343,0.0041661797687411,-0.0851781372003257,22
1734086756513337900,0.4450892344031483,-16.436417684334515,0.4643506189078092,-0.0476518044829834,9.255757992714642,3.240227537372708,0.0283428225666284,-0.0578575655817985,-0.4614000022411346,0.575083572934207,0.4100898972982085,-0.4081919292503393,-0.5783464565894333,-0.0704810991883277,-0.2013788074254989,-0.2775454819202423,1.2710256576538086,-0.6477391719818115,0.8820251822471619,-0.0611649081110954,0.0655972063541412,-0.9864666135638952,0.1478072553873062,-0.2076178643677383,-0.4516862945806235,23
1734086756553337900,-0.7768770837970077,-13.778893589049575,1.2093345809683202,-0.1703289845349267,9.341240227428075,2.980368394440412,1.266887903213501,-0.3463437855243683,-0.3545128107070923,0.5616744950879361,0.418044221655861,-0.4162721761560679,-0.5800674027828677,-1.0940749645233154,-0.0836782231926918,0.6933914422988892,0.9716092348098756,-0.6572154760360718,0.7521266341209412,-0.0610213056206703,0.0669841393828392,-0.860258400708437,0.1105589717626571,-0.2837658324921503,0.0686188512612134,24
1734086756593337900,-1.2305547713905571,-8.15102564973235,0.5480768037341535,-0.2141961650458164,9.51796457555592,2.352199378468096,1.988746881484985,0.0966485366225242,0.0248787552118301,0.5450806216238567,0.4366990724901006,-0.4351610361538716,-0.5681688583433175,-1.735745549201965,-0.1637559086084365,1.1668883562088013,0.5319209694862366,-0.323786586523056,0.5608754754066467,-0.093620628118515,0.0086139775812625,-0.0853173995405435,0.26802659034729,-0.1561394964670762,0.4660636699033901,25
1734086756633337900,-0.0867532592962496,-0.5784609822124243,-1.5671002636402844,-0.1876821790643967,9.680018008774518,1.559618383452296,2.0374934673309326,-0.0013979880604892,0.0887272953987121,0.5276832987764329,0.4584586893578042,-0.4585817548694,-0.5486973344821443,-2.361957311630249,-0.4846061468124389,1.150499939918518,0.0941343307495117,-0.0424631834030151,0.276867151260376,-0.1085365936160087,6.8843364715e-06,0.3864192379653454,0.4356362521648407,-0.2058434751063585,0.4955638320887461,26
1734086756673337900,0.4061312888469546,4.888869189146161,-0.7134837851643562,-0.1741931491497904,9.771725401613116,0.8083539528828114,1.8814990520477293,-0.307020753622055,-0.0053480854257941,0.5082510262613089,0.4766026027942662,-0.4812851316397913,-0.5318792618441419,-2.096407651901245,-0.8235109448432922,0.7894646525382996,-0.2897770404815674,0.3625689148902893,-0.2564860582351684,-0.1485599279403686,-0.0797062292695045,0.0703635760366916,0.3850140571594238,-0.1575997965442948,0.3392521939251571,27
1734086756713337900,0.0920686730321962,8.336975506845116,-0.8290724043279886,-0.1472851223494857,9.804638660177588,0.1332576016440056,1.4417545795440674,0.1406490355730056,0.0713547617197036,0.4921998207756042,0.4931226915914233,-0.50003576309201,-0.5143283176044962,-1.273276686668396,-0.6501095294952393,0.3091169595718384,-0.5879900455474854,0.4474834203720093,-0.3811620473861694,-0.0935983508825302,-0.1455379277467727,0.7723889785975218,0.3275588750839233,0.2026161288239993,0.2008307980434969,28
1734086756753337900,0.8291636628080159,6.738513305735587,-1.8961200365602968,-0.1665683533597737,9.802876326680185,-0.2151167870220728,0.3900056183338165,-0.0208644028753042,-0.1400656700134277,0.4824192803602964,0.5018408579693778,-0.5090419009459266,-0.5062645783913929,-0.4690844118595123,-0.4524644911289215,-0.0176513232290744,-0.4670511484146118,0.4495511054992676,-0.4505597054958343,-0.0639050006866455,-0.1068865805864334,-0.1292091482371092,0.1692810952663421,-0.2682722030231729,-0.1104636956316418,29
1734086756793337900,-0.0794675227348692,3.629628421497345,-1.0604022028684617,-0.223249514067918,9.801094703960418,-0.2430912922764196,-0.1514964401721954,0.2151005417108535,-0.1651951372623443,0.4818264473791305,0.5055922289058662,-0.5067254723552864,-0.5054197365900353,0.0607988871634006,-0.0876911804080009,-0.0708439722657203,-0.2358632087707519,0.2598357796669006,-0.2259575724601745,-0.0230874493718147,0.0667130649089813,-0.1148082824409008,0.0603144541382789,-0.1311049719210714,-0.0688659670232329,30
1734086756833337900,-0.098587800002098,0.3137584909021854,0.093158760690689,-0.2638344215051271,9.80114497284293,-0.1958095723479986,-0.0550556816160678,-0.1035735830664634,-0.0252463109791278,0.4822436835331022,0.5057216503158097,-0.5042113860735801,-0.5074027742067859,0.0982964634895324,-0.0147649897262454,-0.0229361001402139,-0.0453025102615356,0.0686125755310058,-0.0858588218688964,-0.0065426304936409,0.0328735932707786,-0.0865261908084154,0.0153930820524692,-0.0107485538337379,-0.1071286511911079,31
1734086756873338000,0.2503000728777609,-1.1675725377768278,0.2552139292086474,-0.2526944389346987,9.801662859237194,-0.1842849743741564,-0.0121540986001491,0.0411469787359237,0.0565747320652008,0.4823403606169397,0.5046656493321048,-0.5046865378893205,-0.5078897637036646,-0.0203697364777326,0.0233680680394172,0.0719494000077247,0.0812062621116638,-0.045788288116455,0.1006314754486084,-0.0069985194131731,0.0313452407717704,-0.1737619911909103,0.01025858707726,0.0159549999030306,-0.0791648499938659,32
1734086756913337900,0.5282105852041393,-1.167255142390728,1.048322473496199,-0.2443480508718639,9.801346048372984,-0.2105015300452709,0.1902748048305511,0.0328394509851932,-0.0254886858165264,0.4824539991355142,0.5056665459010634,-0.5050088465124569,-0.5064638404326325,-0.1871848106384277,-0.0855765789747238,0.1777695119380951,0.1257266998291015,-0.082571268081665,0.0376074016094207,0.009652498178184,0.014020012691617,-0.13243395550251,0.008124902844429,-0.0415293486804701,-0.1655057290969416,33
1734086756953337900,0.2732460459129884,-0.2221644953101873,1.2122271606046706,-0.2582820480749942,9.79732336872816,-0.3407372813837602,0.4261067509651184,0.0697516798973083,-0.0491339676082134,0.4789880513349834,0.5094877352898455,-0.5077351814730671,-0.5031873913782138,-0.3051186501979828,-0.1622357666492462,0.1739512085914611,0.0299938321113586,-0.0131230354309082,0.0150349140167236,0.0147031098604202,0.0434804707765579,-0.0807557907134294,-0.0420786142349243,-0.1147174532191362,-0.2752200859323144,34
1734086756993337900,-0.1292733543134294,2.082771904462576,0.2567196758627891,-0.2710071809450164,9.790523041063546,-0.4925490508448332,0.3244888484477997,0.1208894029259681,-0.0190311782062053,0.4761062478879994,0.514955376764633,-0.5098372012483858,-0.4982066581658164,-0.1265907138586044,-0.0681425705552101,0.1296470463275909,-0.1167441010475158,0.1090925335884094,-0.1422119736671447,-0.0076669380068778,0.083299346268177,-0.1057189670562744,-0.0872965157032013,-0.189625148092024,-0.1605641262426041,35
1734086757033337900,-0.8015355781048535,7.303517425003648,-0.905658215880394,-0.2623876750292256,9.786592715877294,-0.5693191694555804,-0.0458850190043449,0.0087062465026974,0.0660957768559455,0.4747566364509544,0.5170626923682687,-0.5115401950707027,-0.4955591543465631,0.3826480209827423,0.6065028309822083,-0.0549762547016143,-0.5221166014671326,0.409646987915039,-0.3858442902565002,-0.0576283149421215,0.1149185746908187,-0.3028384529590606,-0.168341264128685,-0.5071959272913634,-0.0504414626009762,36
1734086757073337900,-1.162418077623099,11.937947742700576,-4.21862541077137,-0.2021273406600579,9.799608264794944,-0.3118024614635855,-1.387582302093506,0.1626687198877334,0.2024196088314056,0.4840709330346229,0.5102476457193077,-0.5055144319347528,-0.4997778446038405,2.1161680221557617,1.3180427551269531,-0.2774802148342132,-0.9464306831359864,0.7891489267349243,-0.7689622640609741,-0.1142886579036712,0.1551574021577835,1.1276058535695077,-0.1308902204036712,0.2377529634557664,0.3649677960705011,37
1734086757113337900,0.343912148560211,8.212239704629779,-4.824384734275937,-0.1151165081398561,9.795450560593604,0.4542186260698363,-2.3727030754089355,-0.3617008924484253,0.1704444587230682,0.5052380257774847,0.4881277732439093,-0.4884389132539334,-0.5175841951973157,2.9502973556518555,0.9623656868934632,-0.7301145195960999,-0.5809291005134583,0.6424238681793213,-0.3467496037483215,-0.1934156119823455,-0.0939695239067077,0.7015624612241983,-0.1315173357725143,0.1901985640658065,0.4494494023740291,38
1734086757153337900,1.6389809662416577,-1.066296521604061,-3.3385634084403515,-0.0796075979258399,9.706371178171038,1.3965664407156406,-2.4426629543304443,-0.1653618663549423,-0.0305362623184919,0.5250193084446038,0.4587353627448475,-0.4672866272189714,-0.5436540979368424,2.459207534790039,0.3525778651237488,-1.2423841953277588,0.12607342004776,0.3635686039924621,0.5169858336448669,-0.1527675837278366,-0.0487387999892234,0.0781073220312595,-0.03365358710289,0.2088356974585913,0.5316975505370647,39
1734086757193337900,2.699260419513285,-9.939826298302412,-1.8680851976871489,-0.1491363579730503,9.533410566490888,2.2939539641179145,-2.029001235961914,-0.0641562119126319,-0.3517656326293945,0.5438759481164223,0.4354749132741973,-0.4397755059567947,-0.5667080944848002,1.3043265342712402,-0.2008672654628753,-1.081959843635559,0.8122993111610413,-0.3611157238483429,0.8594839572906494,-0.0346639230847358,-0.0095580071210861,-0.5050140532076358,-0.0029631406068801,0.144962506354507,-0.08600585672874,40
1734086757233337900,1.1098218481410294,-14.87927592012882,1.973881321632862,-0.2887604259090497,9.397900272282955,2.7868387497231364,-0.4467168748378753,-0.120621457695961,-0.3884902000427246,0.5486238464911029,0.4228025805656977,-0.4232596584919507,-0.5840385981474842,0.0743810087442398,-0.2584461271762848,-0.5287735462188721,1.069323182106018,-0.5830759406089783,0.9345419406890868,0.0069554671645164,0.1175235658884048,-1.208434709519148,-0.1310662180185318,-0.1274884984569624,-0.6681790278647095,41
1734086757273337900,0.6550340804137289,-14.607901111447813,1.2593395518481731,-0.4171102904357016,9.41757177195847,2.7029145581066607,0.7141109108924866,-0.2867114841938019,-0.4188579022884369,0.5411693762195923,0.4269915907286737,-0.4241083468956086,-0.587321063263211,-1.0736390352249146,-0.1640173196792602,0.3647083640098572,1.0130093097686768,-0.6999845504760742,0.7228289842605591,0.0159956999123096,0.1149898022413253,-0.9483236376523972,-0.1909855753183365,-0.0622655732443556,-0.3604053469931706,42
1734086757313337900,-1.5135694567218425,-10.954274559247493,2.399624269726872,-0.4909760293744504,9.523738482782244,2.2864267834834755,1.6379389762878418,0.2415419369935989,0.0334446094930172,0.5275236289248328,0.4390580619836899,-0.4366379481156975,-0.5816306949761919,-1.6145925521850586,-0.0196434743702411,1.0120189189910889,0.5984819531440735,-0.3512003421783447,0.6952497363090515,-0.0050186067819595,0.1398898512125015,-0.2555459559082985,-0.143308401107788,-0.2176064666796475,0.0523078044621273,43
1734086757353337900,-1.1294814381830394,-0.9856447757869958,-0.9241817145645618,-0.394128606766276,9.711013451018928,1.3081515135511754,2.056105136871338,0.3535740673542022,0.3742323219776153,0.5129962586695147,0.4677415008151114,-0.4631638211653946,-0.5509373720680867,-2.253868579864502,-0.1908813714981079,1.0184011459350586,0.0919540524482727,-0.0818049311637878,0.2450668215751648,-0.0026733772829174,0.1501740366220474,0.2215098307937383,-0.0864654332399368,-0.2185127130706794,0.3605005875285714,44
1734086757393337900,-0.3224296539399772,5.52729861010909,-1.6763742928296326,-0.2409558694166131,9.783620422068235,0.6269657045971602,1.4943468570709229,0.2914850115776062,0.4423714876174927,0.5042757816774006,0.4850297526699961,-0.4824725719484455,-0.5269461555521892,-1.7812669277191162,-0.3864006996154785,0.7956242561340332,-0.3878980875015259,0.1969643235206604,-0.2639979124069214,0.0056091090664267,0.066184215247631,0.62192369184196,-0.0925664827227592,0.023020725621737,0.2942709329588338,45
1734086757433337900,1.2021529258359225,7.811859745851159,-0.446903809544444,-0.0933382363102864,9.806171861094237,0.0255241301272762,1.5337040424346924,0.0389874391257762,0.261741578578949,0.4954155880123421,0.4989073989164592,-0.4997899947622111,-0.5058307017459469,-1.2752439975738523,-0.3900886476039886,0.2365460693836212,-0.4839724898338318,0.4763867259025574,-0.3651857376098633,-0.077774740755558,-0.074936531484127,0.4459533769518137,-0.0682698264718055,0.2270420930176042,0.2794558968711644,46
1734086757473337900,0.4542096025131643,6.2379229141891,-2.476608725208044,-0.0735314746162388,9.797840086078644,-0.4090030083583668,0.5774451494216919,0.045193150639534,-0.0633530244231224,0.4842117223905055,0.5087021276724543,-0.5119330968809221,-0.4946570001894607,-0.592797577381134,-0.1963526308536529,0.0909498557448387,-0.4380993843078613,0.3877361416816711,-0.3904152512550354,-0.1289608776569366,0.0060067921876907,0.097687051770091,-0.0206816531717777,0.074153816898819,0.1029466527987271,47
1734086757513337900,0.7436110662721097,3.798723589920997,-1.5012404287636278,-0.1130383136263117,9.795403798842427,-0.4557202993370592,-0.1663967072963714,0.1235360205173492,-0.1725998371839523,0.4832767928213345,0.5122097123781393,-0.51076068619568,-0.4931615517172975,-0.0222206339240074,-0.0581337697803974,-0.1155518516898155,-0.2039933800697326,0.2939226031303406,-0.2656936645507812,-0.1137057095766067,0.0347005352377891,0.026971593555808,-0.085205852985382,0.150810885322839,-0.0336495369497686,48
1734086757553337900,-0.0293313723565544,1.1870885546296834,-0.3652524947633966,-0.147540284420643,9.79840590326786,-0.3739574870055541,-0.254602700471878,-0.0552936308085918,0.0654047504067421,0.4849246591828904,0.5114800886053888,-0.5073998857846775,-0.4957635370081956,0.1086265966296196,-0.0484855622053146,-0.2255386114120483,-0.0885184407234191,0.1782989501953125,-0.0947855710983276,-0.0679962933063507,0.0551821440458297,-0.0846615659803152,-0.1451157480478286,0.0828286879973486,-0.0855385680105537,49
1734086757593337900,0.30701372934971,-0.826639624223113,-0.4934662387549877,-0.0876449291726574,9.803698164457082,-0.2240455232838168,-0.4523992240428924,-0.0058269817382097,0.186279222369194,0.489687671516283,0.5055479759828146,-0.5058106233826968,-0.4987812950849888,0.1983266621828079,0.0112676760181784,-0.1895672976970672,0.0594143867492675,0.0159496665000915,0.048474371433258,-0.0223874747753143,0.0351544544100761,-0.1451286019027233,-0.1480484008789062,0.10908753017392,-0.0208319217570126,50
1734086757633337900,0.4411360032653436,-0.8784037137299776,0.5614788677513599,-0.0231980412502889,9.806380535408854,-0.0687225308313965,-0.3283529877662658,0.230042964220047,0.1015216186642646,0.496788391943206,0.5014710979312399,-0.5020265050521617,-0.4996972150095791,0.1044206693768501,-0.0205245539546012,-0.1520478129386901,0.0930526256561279,-0.0155027508735656,0.0671090483665466,-0.0043290723115205,0.037617739289999,-0.1517687705695629,-0.0772600248456001,0.0171531099466839,0.0545953674100339,51
1734086757673337900,0.113848351367563,-0.9160346484661102,1.6499848830759525,-0.0201749534023343,9.806602069205043,-0.0225265534632024,0.235063225030899,0.0711730942130088,0.0164492409676313,0.5000983420222567,0.5022758658277674,-0.4988662037116245,-0.4987514128215328,-0.1367519944906234,-0.0768380537629127,-0.0463239774107933,0.0872864127159118,-0.056551456451416,0.0503400266170501,-0.0090735759586095,0.0153249260038137,-0.026676994523406,-0.0420178845524787,0.1249277719903271,-0.0733578624818474,52
1734086757713337900,0.5392987462557852,-0.1156073238641023,0.2638379834353924,-0.0523779288225807,9.805091080120205,-0.1668725239381194,0.3260800540447235,0.1750262528657913,-0.244017869234085,0.4963612682487339,0.5075634412956666,-0.5008866981118113,-0.4950933566093261,-0.2665770947933197,-0.1249545067548751,-0.0217058509588241,0.0305317044258117,0.0441363453865051,-0.0105387568473815,-0.0352149009704589,0.0187190733850002,-0.0723071113198995,-0.0848103389143943,-0.0022953306958312,-0.1527436069510877,53
1734086757753337900,-0.4206147548926994,-0.0096843586683273,-0.1078279220342636,-0.1212231635850388,9.80122096068859,-0.3029270262916572,0.297535091638565,0.2963211834430694,-0.0641848295927047,0.4933851320092831,0.5150931221674063,-0.5001240401157928,-0.4910460187959589,-0.3161332011222839,-0.1369356960058212,-0.0011694845743477,0.0148887038230896,0.031783640384674,-0.0078880190849304,-0.0261172652244567,0.0070787314325571,0.0032131168276071,-0.1433238387107849,0.0205651834124932,-0.0955273164529353,54
1734086757793337900,0.2721297369678505,0.4884323362410068,-0.5299579768607393,-0.1187513849103357,9.79855554087162,-0.3802878590708598,0.1609464138746261,0.34788379073143,-0.0545346401631832,0.4949986300962919,0.520657796181165,-0.4983018609562264,-0.4853732639806954,-0.1157915890216827,-0.1031759157776832,0.0459216609597206,-0.0442318320274353,0.0132925510406494,-0.0223593115806579,0.011305421590805,0.0215522535145282,-0.062431029471755,-0.1694024950265884,-0.0808243533044587,0.0392852047491818,55
1734086757833337900,-0.0350270358480513,0.1196294189870357,-0.2755202013900503,-0.1446877536668907,9.795357621613144,-0.4476784837113693,0.1092879027128219,0.3403937816619873,-0.077984370291233,0.4961688151971015,0.5267341973885252,-0.4953547581178896,-0.4806154739035679,-0.0536406077444553,-0.0880312174558639,0.0454596690833568,0.0060164928436279,0.0445170998573303,-0.0230979621410369,0.0815256983041763,-0.0020322520285844,0.0475853425174951,-0.1643337905406952,0.0840816289342008,0.1142784133478999,56
1734086757873338000,0.5924812877258285,-0.1181640226095914,-0.1180079552650451,-0.1558388695526868,9.793132931300995,-0.4905676677692681,0.1591906696557998,-0.4298677444458008,0.014207063242793,0.4944861489039777,0.5278380096196981,-0.4963859652977054,-0.480074475968381,-0.1431031078100204,-0.1503500342369079,0.0665044337511062,0.0302835702896118,0.0120719671249389,-0.0661928057670593,0.1445039063692093,-0.0327709056437015,-0.0111345574766397,-0.1453537493944168,0.071534428180661,0.0981510160200297,57
1734086757913308200,0.7912563222832978,-0.3572919276803731,-0.4395780697662383,-0.1829795177987776,9.78910089930594,-0.5571575339535251,0.0559888072311878,-0.4120970368385315,-0.1395682245492935,0.4874105604612922,0.5254156894670294,-0.5023400058151434,-0.4837601690975571,-0.1391661614179611,-0.1424288749694824,0.1261872053146362,0.0593011975288391,-0.0125430226325988,0.0086187720298767,0.1658426225185394,-0.0355442874133586,-0.064705760337552,-0.1095119565725326,0.0684916355518158,0.0790890265449881,58
1734086757953308200,-0.002852302424889,-0.0492448001623153,0.1088308885317295,-0.2952259869276545,9.78766122189164,-0.5338014640137553,-0.0443215705454349,-0.0219856854528188,-0.2481492161750793,0.4821275732792325,0.5245024667444603,-0.5021090141011062,-0.4902416151170033,-0.1493761837482452,-0.1255391240119934,0.1342198997735977,0.0156436562538146,0.0372315049171447,0.0495033860206604,0.144801840186119,-0.0043382458388805,-0.0599935731917619,-0.1087241470813751,-0.0078218709983862,-0.021805954420939,59
1734086757993308200,0.6879525996752083,-0.0738695383310318,0.4985258967647328,-0.3889765212327242,9.787294726666808,-0.4774269946346059,-0.1649676412343979,0.5332763195037842,-0.3379100561141968,0.4842082830805642,0.5284603386320381,-0.4950471422558623,-0.4911214533277551,0.112125463783741,-0.0761805176734924,0.0109025575220584,-0.0095043182373046,0.0200586915016174,0.0943048298358917,0.1205677241086959,0.0068472735583782,-0.0032119477838277,-0.1130958199501037,-0.0300672671493608,0.0014297405421733,60
1734086758033308000,-0.0746271882979199,0.023372107759118,1.3592027786135672,-0.5384380377732217,9.776693837675452,-0.5447251917513087,0.4072458446025848,0.5483148097991943,-0.3703556954860687,0.483605897292228,0.5388663162387475,-0.4872333621530487,-0.4882131617591545,-0.1505868583917617,-0.0419720038771629,-0.0028865574859082,0.0007284879684448,-0.0304243564605712,0.1231192350387573,0.1132557615637779,0.0023621483705937,-0.017659575331211,-0.1074728369712829,-0.0548587401871103,0.0421340183090418,61
1734086758073308000,-0.3254453484993427,-0.3759101189106703,-0.8762240316033363,-0.6202643803276121,9.765520117232205,-0.6482834371097386,0.021300746127963,0.5910624861717224,-0.1077272221446037,0.4841602703344012,0.5489167110529238,-0.4813976522677824,-0.4822194221783284,-0.2349914908409118,-0.1843022406101226,-0.0665109381079673,0.0574977397918701,0.0449860095977783,-0.0829818844795227,0.1205301582813263,-0.0058309943415224,0.0216384158343076,-0.0866635590791702,-0.0447073211294598,0.097341160941869,62
1734086758113308200,0.9127357530511916,0.3496154017031193,-2.094642374998331,-0.5896682395990938,9.764391405463218,-0.6923580680925399,-0.1859865337610244,1.5522410869598389,-0.0218422971665859,0.4911913406147446,0.5568079741135458,-0.4746212340732588,-0.4726845983954069,0.2130206525325775,-0.2012524157762527,0.0477421283721923,-0.0167596936225891,-0.0323874354362487,-0.0380481481552124,0.1397237479686737,-0.0404345020651817,0.0132779992461204,-0.0777142420411109,-0.0217656406768597,0.131140554691106,63
1734086758153308200,-1.8521385637536645,-0.0808925688356161,0.9726537767887116,-0.4114296509834006,9.764091545733809,-0.8146366864141076,0.4052923321723938,2.772013902664185,0.6274303197860718,0.5182337084539724,0.5826694264983657,-0.4494788658915175,-0.4357739764771074,-0.3095895648002624,-0.3356544375419616,0.1693692356348037,0.0017614364624023,-0.1216910481452941,-0.0688476860523223,0.1695855557918548,-0.057372361421585,0.018666706547141,-0.0806211456656456,-0.0175246055736206,0.1640472373843192,64
1734086758193308200,0.3098720048576593,-0.1235614977389574,0.2353041089989244,-0.1374894670601003,9.75663070833385,-0.9796017692957072,0.1348495930433273,1.4372879266738892,0.3057391941547394,0.5360228455678744,0.5987552644010468,-0.4375361983239135,-0.4034025656609504,-0.4858748316764831,-0.2026827037334442,-0.0572817549109458,0.0268054604530334,0.1120834350585937,0.071585863828659,0.1965402364730835,-0.0461916625499725,-0.0710468821257352,-0.11782768368721,-0.0376404423499945,0.1540897608630359,65
1734086758233308200,-0.6028982349850237,-0.5163952789217233,-0.4584779274821281,-0.0028347465040118,9.766543030539154,-0.8860165268212556,-0.4394111931324005,1.245844483375549,0.2665556073188782,0.5522518075297665,0.6047426627776374,-0.4236278821219078,-0.3870965451604032,-0.7230440378189087,0.0196569003164768,-0.2004653364419937,-0.0288379192352294,0.0268961191177368,0.1546728014945984,0.2140890955924987,-0.0046466067433357,-0.1325304016143083,-0.1827167719602584,-0.0741604567021597,0.1479075650967657,66
1734086758273308200,-0.6774331053569913,-0.2256026530653238,1.1280630227524786,0.2036804883861914,9.770086986756324,-0.821155859049782,0.079648919403553,1.9750007390975952,0.5101375579833984,0.570030435708648,0.6115313414645112,-0.4097520185038347,-0.3649629894609742,-0.1916882246732711,0.0739601403474807,-0.0821407660841941,0.0126875042915344,-0.0047397017478942,-0.0089281797409057,0.2179833054542541,0.0473792627453804,-0.1231049861431121,-0.2648914754390716,-0.0542619798703584,0.1220135376445949,67
1734086758313308000,-1.5083593208581207,-0.5473422058492898,-0.1286813980359584,0.5485836207451299,9.755742235061524,-0.8336381048083304,0.2936702072620392,2.508107662200928,1.0789706707000732,0.5921278053517273,0.6237926267271863,-0.3916458530499292,-0.3269266249746491,-0.0099602388218045,-0.0600036270916461,0.0531497448682785,0.0833563208580017,-0.0403708815574646,-0.0437728464603424,0.2121423929929733,0.0676945447921752,-0.07316402041018,-0.338098406791687,-0.0316007968595717,0.1062573117166757,68
1734086758353308000,-0.2315708407547324,-0.5821656819492578,0.2373136221904307,1.1382248627394438,9.700183429446817,-0.8838971235144882,0.401338666677475,3.7819254398345934,1.2991321086883545,0.6179209746678547,0.6372684592851537,-0.3727668446169754,-0.2703839022967257,-0.0370856001973152,-0.1728132665157318,0.123157262802124,0.0358149409294128,-0.021217942237854,0.0109323561191558,0.1967805922031402,0.0954534038901329,-0.0969973159402608,-0.4127953648567199,-0.0866907519866712,-0.0713612087719142,69
1734086758393308200,0.2899409774631262,-1.0092243888169528,-1.3012135309815407,1.7036808174282312,9.62969827285707,-0.7326607062559575,-0.0701680332422256,3.8892104625701904,0.8526260256767273,0.6496100268074289,0.6515377286604274,-0.335937327734721,-0.2016225618034615,-0.2762518525123596,-0.3206077814102173,0.1225688308477401,0.0851471424102783,-0.0514798164367675,-0.0119710564613342,0.1521058082580566,0.1382012665271759,-0.0519639959931373,-0.4316704273223877,-0.0719822632797062,-0.028225831400603,70
1734086758433308200,-0.9214557967320084,-1.172986379519105,-1.4509890819072722,2.043288912118971,9.586659926119449,-0.3021654673346318,-0.6648836135864258,3.0493078231811523,0.651344895362854,0.679570818687972,0.6530009756402987,-0.2983217681518242,-0.1509217095760822,-0.6126701235771179,-0.3631945550441742,-0.0349093377590179,0.0424718260765075,0.0533003807067871,0.0617836713790893,0.1235347837209701,0.1190195381641388,0.0045434886485338,-0.3687507808208465,-0.0256046708504669,0.0774276692040264,71
1734086758473308200,-2.344073647418618,-1.118656823438406,0.4668301607638597,2.395997895923257,9.508387768915297,0.1418952825373038,-0.187728926539421,2.625937223434448,1.3230376243591309,0.7044680195128483,0.6480871754010159,-0.26971905225663,-0.1046873846904201,-0.0503654517233371,-0.3307614326477051,-0.1207480132579803,0.0652424097061157,0.1050435304641723,0.0006800293922424,0.1260335892438888,0.1213086247444152,-0.0640484015405178,-0.2808896005153656,-0.0641080593058839,0.1385347565956413,72
1734086758513308200,-2.6282135373875497,-0.8277005314528941,1.2101958739727734,3.0660525814667343,9.30930896563828,0.3262828953020274,0.6420332789421082,2.948411226272583,2.375097274780273,0.7175863194558293,0.6467632309273473,-0.255071608490115,-0.0412990592374831,-0.0493683628737926,-0.2982667982578277,-0.1541832685470581,0.035041868686676,0.0728747248649597,0.0284488201141357,0.1622616797685623,0.1155008226633071,-0.0497591794252395,-0.2405846863985061,-0.0287597556142136,0.0856967542469501,73
1734086758553308000,-2.461932257340848,-0.9819733937978744,1.3423743934094905,4.074875403745472,8.906630666789413,0.4875436437729746,0.9877265691757202,3.514491081237793,3.384827136993408,0.7230099412249351,0.643756602593737,-0.2464135319959682,0.0459822701259036,-0.043948832899332,-0.208654448390007,-0.1009999364614486,0.0066916346549987,0.0542539954185485,0.0224774181842803,0.1915227174758911,0.1148902028799057,-0.1096522148519754,-0.2836657464504242,-0.0239510766908526,-0.0262495628915727,74
1734086758593308000,-1.780426203456521,-1.6164467706114052,2.194467023319006,5.240196655464172,8.25392079153955,0.7638681838158518,1.6008830070495603,4.013184070587158,4.003764152526856,0.7178367380541127,0.6367663780090796,-0.2357586506366194,0.1538075165707643,0.0422598235309124,-0.0749566927552223,0.0573468878865242,-0.0094860792160034,-0.0076146721839904,0.0450191646814346,0.1949111968278885,0.1185123175382614,-0.1105044477671384,-0.3477316498756408,0.0057149070480838,-0.0658802931427955,75
1734086758633308200,-0.7497527838975191,-1.6826351067900656,1.1830131949495524,6.401415440300107,7.335045366689562,1.178717251321301,1.567121982574463,3.9746038913726807,4.320709705352783,0.6973325177224072,0.6239464580258136,-0.2249287950711097,0.2717078940062743,-0.0694406032562255,0.0643520355224609,0.2047405242919922,-0.0172885656356811,-0.0047985911369323,0.0247429013252258,0.1651363372802734,0.1454251855611801,-0.173548056179285,-0.4271661639213562,-0.0294976779673248,-0.1998755066126585,76
1734086758673308200,-0.5619119984716177,-2.203239527839422,-0.6269263224348426,7.315655606564879,6.233130419215559,1.949274119120836,0.6961548924446106,4.139987945556641,4.19264030456543,0.6720112131151464,0.5955371158013928,-0.2143600250458414,0.3844299516704217,-0.2115844339132309,0.1624612361192703,0.3215758204460144,0.0055457353591918,-0.0640953183174133,0.0651665925979614,0.0857746973633766,0.1736076325178146,-0.1219680910676717,-0.4943356812000274,0.0117724169887602,-0.1783013881862163,77
1734086758713308200,-0.3658201020509004,-1.788300882354379,-0.454802161578834,7.817023996746539,5.018826525402069,3.142592800311744,-0.313180923461914,3.565694570541382,3.8489201068878174,0.6519908718612827,0.5454191589311415,-0.2056460714375929,0.484907708580672,-0.3409778475761413,0.1739446818828582,0.3675878345966339,-0.0003012418746948,-0.0802759528160095,0.0824168473482132,0.0164528265595436,0.1782048940658569,-0.0762403591156005,-0.5239099264144897,0.0129495710093528,-0.1004573932662606,78
1734086758753308200,1.212770692896843,-0.9829504221364856,-0.5023357739090919,8.025405465897917,3.826813081590831,4.137482082045078,-0.7689909934997559,2.4313406944274902,3.166723251342773,0.6323632557914001,0.4945445525765108,-0.2108857766247544,0.5577361887482708,-0.5102832913398743,0.0853739157319068,0.3721030354499817,0.0293076038360595,-0.0780110359191894,0.0431661009788513,0.0085718110203742,0.1417321413755417,-0.0026987375646829,-0.5281699299812317,0.0187928902100771,-0.0231879833638668,79
1734086758793308000,1.8624311174482109,-1.113971880492568,0.5930781211078167,8.01365073069632,2.747266325530409,4.940071553117036,-0.9250115752220154,2.0283522605896,2.462820053100586,0.6183224093848694,0.4455397718951696,-0.2227571550924326,0.6079069600307863,-0.5022362470626831,-0.0556692257523536,0.3500289022922516,-0.014051616191864,-0.0025326609611511,-0.0447589606046676,-0.0087422244250774,0.1050284951925277,-0.0085123922795057,-0.5000500679016113,-0.0072321432106196,0.0258379133507609,80
1734086758833308000,1.5523101062655449,-0.5458027213223278,1.439482183986902,7.883537911617755,1.8914936919339,5.517469290012121,-0.5133194327354431,1.3500642776489258,2.131274461746216,0.6016907512444354,0.4073862173583631,-0.2296166870898312,0.6475190566823599,-0.4584200382232666,-0.0327753648161888,0.3291691541671753,-0.0671062469482421,0.0463805794715881,0.0069528818130493,-0.0076487306505441,0.0727855265140533,0.0127256260603666,-0.4215921759605407,-0.0047996553666889,0.0166942374303936,81
1734086758873308200,2.698497326186299,0.1988959940560161,2.2194138330489395,7.756531826382875,1.2328363064564765,5.872538280946016,-0.3864750266075134,0.7503650784492493,1.4494951963424685,0.5871069625162596,0.3797564157041567,-0.2374214371787874,0.6743303355579823,-0.3136575222015381,-0.0550331026315689,0.3148097097873688,-0.0466872453689575,0.0203374624252319,-0.1058884859085083,0.006028426811099,0.0320902317762374,-0.0376116455137729,-0.3894811868667602,0.0520474364928901,-0.1534571620479226,82
1734086758913308200,1.6772399697482585,0.7371079679884016,2.3713731577545403,7.529662514382601,0.7493918416306377,6.2380263745635744,-0.2086247652769088,1.3670072555541992,1.3352844715118408,0.5759872856074943,0.354161687601311,-0.2377365522013282,0.6973445059415863,-0.3149158656597137,0.0444567874073982,0.3652902245521545,-0.0643388032913208,-0.0306977033615112,-0.0328448563814163,-0.0064973151311278,0.0350721664726734,-0.1134825867950916,-0.3489253520965576,-0.0111140261452645,-0.2111445041239261,83
1734086758953308200,1.6508084744185207,1.1238989618755877,2.27758369794488,7.291234866535663,0.3373122023059055,6.549388910239935,-0.1753665655851364,0.6936379671096802,1.0425190925598145,0.565315636481268,0.3313638777603889,-0.2372173519971687,0.7171779121463298,-0.4535475373268127,0.0832545161247253,0.4278936088085174,-0.0581828355789184,-0.0273811817169189,-0.0729362219572067,-0.0250383205711841,0.0417513325810432,-0.1337280869662761,-0.2819044888019562,-0.0184592012763023,-0.2354226208120584,84
1734086758993308200,1.424693195655942,0.7375639681275934,2.994032762655616,7.1097378971785306,0.0634461110987002,6.754108934274315,0.4108834564685821,0.7303980588912964,1.007182478904724,0.5541190123274743,0.3168166857835557,-0.2350818444499199,0.73301831538097,-0.5332831144332886,0.0310299824923276,0.420010358095169,-0.040523886680603,-0.0543793439865112,-0.0740924477577209,-0.0336541309952735,0.0333093218505382,-0.138323598062992,-0.2308251559734344,0.0075767919298261,-0.2614984345719218,85
1734086759033308000,1.4005360749989748,0.4176780438536778,1.5301637409090996,6.928442587873339,-0.019641832906322,6.940222457516193,0.9026808142662048,0.4639825820922851,0.9095739722251892,0.5371771251184703,0.3104262061103719,-0.2231203680116747,0.7518601427920247,-0.4976579844951629,0.0645136907696724,0.3978645205497741,-0.028635561466217,-0.0066070556640625,0.0257066488265991,-0.0360995456576347,0.0331495329737663,-0.1295715518087148,-0.1659768223762512,-0.0307739815134555,-0.1985083099126815,86
1734086759073308000,1.248973640656471,0.0211455953826429,1.0005430697113276,6.846719413432479,0.0596586604152806,7.020631042227149,1.0102258920669556,0.1862541884183883,0.5597177147865295,0.5226368322185738,0.3130055738989017,-0.209940370882351,0.7647242682976795,-0.4639969766139984,0.0124689741060137,0.363748699426651,0.0004289150238037,0.0396022796630859,-0.0409656167030334,-0.0448486693203449,0.0219720005989074,-0.1172545065492391,-0.1140069216489791,-0.0250395295146852,-0.1832154637128114,87
1734086759113308200,0.3147837422966957,-0.1598878892151638,0.2488461660087108,6.776542299878597,0.1845780207702889,7.08623953269124,1.056258201599121,0.241087794303894,0.6388921737670898,0.5077631623708417,0.3171739363407747,-0.1951999925648796,0.7768359963204997,-0.3644115328788757,-0.008633860386908,0.3179258108139038,-0.0120955109596252,0.0409783124923706,-0.0390650555491447,-0.0431931912899017,0.0100708389654755,-0.1187158112734556,-0.0895243734121322,-0.0367634311866015,-0.1830336774051189,88
1734086759153308200,0.4891197339832782,0.294940575848706,-0.6853828953176736,6.801673234003782,0.3206685625515878,7.057251338616013,0.9260066151618958,-0.316065102815628,0.4587274491786957,0.4920886871788414,0.3263396939860203,-0.1835285301698485,0.7859188174981434,-0.1790869385004043,-0.024404514580965,0.2601640522480011,-0.0073220133781433,0.0323179960250854,-0.0038246437907218,-0.0279389172792434,0.0021630777046084,-0.1209486848920583,-0.0875915065407753,-0.0223636613689362,-0.1497998085841536,89
1734086759193308200,0.9450888935148716,0.194720790730603,-0.4045101904511451,6.854023014444112,0.4677247349834069,6.998142147043347,0.8895541429519653,-0.0767113119363784,0.3131426274776459,0.4798513804949488,0.3361974353002592,-0.1736817415277862,0.7915482465149826,-0.0996999740600586,-0.0815995708107948,0.1599662750959396,-0.0192182660102844,0.0461621880531311,-0.0015164613723754,-0.0065428745001554,0.0127103878185153,-0.1597211908787489,-0.0903900787234306,-0.0090844930790364,-0.1255541328608989,90
1734086759233308200,0.1719827065587043,0.0436821245338767,-1.2824141379654406,6.904978125655651,0.6003582681786268,6.937667512336373,0.6450920701026917,-0.1032995581626892,0.2949400842189789,0.4693104270134682,0.34504153536553,-0.1649961403596055,0.7959085455554693,0.0140793174505233,-0.2018888592720031,0.0389291308820247,0.0072237253189086,0.0565141439437866,-0.0399049594998359,0.0175556223839521,0.0184559933841228,-0.173292620113492,-0.0930154770612716,-0.0016036358043551,-0.1178419510483741,91
1734086759273308200,0.2141600525528192,0.2921739241469651,-1.127605269047618,6.890483736357092,0.6734374598495662,6.945365665623545,0.3881231546401977,0.1049689352512359,0.2662212252616882,0.4613400040771593,0.3479331904728552,-0.1575671292132724,0.8007999174087187,0.0188607573509216,-0.2859692871570587,0.0199423246085643,0.0208150148391723,0.0041589140892028,0.0097642466425895,0.0255872551351785,0.0297058243304491,-0.1382189686447381,-0.1063906475901603,-0.0320935396794229,-0.1149538283914327,92
1734086759313308000,0.4702081127643585,0.1321693862821906,-0.8809329399466514,6.882833513864875,0.6689904173128306,6.95337595359981,0.1244246363639831,0.1161080598831176,0.2023769170045852,0.4561429288367352,0.3483962137886858,-0.1552306922227537,0.8040256038838457,0.0499158799648284,-0.2610448002815246,0.1467247009277343,0.0580320954322814,-0.0197022557258605,0.0046601369976997,0.0138602890074253,0.0501593872904777,-0.1289145492047071,-0.1005051508545875,-0.0735297119174152,-0.0645312166213989,93
1734086759353308000,0.3856751415997743,0.0097612963620573,-0.6716793641358614,6.854390678712726,0.6576224164064973,6.982495665100217,0.0749764293432235,0.0507459379732608,0.1577111333608627,0.4528218686935182,0.3471322577419873,-0.1532677271615722,0.8068213009547692,0.0591874085366725,-0.153994083404541,0.3172377943992615,0.0439510941505432,-0.0333279371261596,0.0435729697346687,-0.0040338691323995,0.0501625575125217,-0.050360652449727,-0.1035827696323394,-0.061284928176552,-0.0161719671219587,94
1734086759393308200,0.2252449256688356,0.2928470011029392,-0.947433995336294,6.8433362007349725,0.5951025761401281,6.998928328984976,-0.1834368854761123,0.0364371612668037,0.1399531066417694,0.4511641122588114,0.3451078799347811,-0.1550952304662474,0.8082679385201224,0.0376227274537086,-0.1600776016712188,0.4405221045017242,0.0330955386161804,-0.0145281553268432,0.0043948218226432,-0.0141871022060513,0.0449246019124984,-0.0429676195889711,-0.137317419052124,-0.0811629102095961,0.0216170807853341,95
1734086759433308200,0.042613399323821,0.2092729380983859,-0.493309002366662,6.811835731577873,0.5004579973384737,7.036960830259322,-0.2207628339529037,0.1399866938591003,0.1372654736042022,0.4505689042993246,0.3408830895621444,-0.1581568076661369,0.8097979767718725,0.249501422047615,-0.0801805406808853,0.4697160720825195,-0.0087202787399292,0.039518654346466,0.012513093650341,-0.0110827479511499,0.028666153550148,-0.0082277301192283,-0.1710785925388336,-0.0727639151766896,0.0934697263360023,96
1734086759473308200,0.024985388174653,0.2149544908661395,-0.5969114156603813,6.775445152291655,0.3880851618835702,7.079062772929668,-0.3309106826782226,0.1789101213216781,0.1525570601224899,0.450697939260669,0.3357949905412545,-0.1622035157478513,0.811050690967445,0.5428656339645386,-0.0314380265772342,0.4421499669551849,-0.0247735679149627,0.0332236289978027,0.0031834244728088,0.0034214379265904,0.0076657757163047,0.033075755649805,-0.1879825890064239,-0.0233616594303399,0.1427279705017805,97
1734086759513308200,0.2424883214145898,-0.005234978044033,0.1799924100130796,6.70413757340312,0.2395673924665897,7.153147999837994,-0.3081783950328827,0.2736524939537048,0.183036595582962,0.4507035066068485,0.3278893855741181,-0.1666718589221507,0.8133728088927719,0.6278822422027588,0.0548048205673694,0.4552966058254242,-0.0341837406158447,-0.009085476398468,0.0327407792210578,0.0254148431122303,-0.0170751325786113,-0.0019312603235244,-0.1918347626924514,-0.0064704381231218,0.0798465669140219,98
1734086759553308000,0.0706453155875206,0.0129946979258675,-0.0498521184056997,6.659754826319217,0.112850764298113,7.197591537198424,-0.2796752750873565,0.0404462851583957,0.1538609266281128,0.4506219625404862,0.3221129067675622,-0.1710796277307805,0.814809830497815,0.4103302657604217,0.0544846579432487,0.3907350301742553,-0.0113953053951263,-0.0287454724311828,0.033311553299427,0.024388225749135,-0.0033750580623745,-0.0148573773920536,-0.1949342638254165,-0.0132209352966398,0.0041743630751967,99
1734086759593308000,0.3159095314562321,0.192703404759895,-0.5426373891592026,6.6214394164502615,-0.0276529839656897,7.233682841277122,-0.4224014282226562,0.2389936000108719,0.1623149365186691,0.4501658931723802,0.3164200338129088,-0.1762474847641587,0.8161899000336624,1.0498842000961304,0.1566592305898666,0.4621022939682007,0.0174622535705566,-0.0073317289352416,-0.0203214287757873,0.0136759895831346,-0.0271010212600231,-0.0111415717393159,-0.1941821277141571,0.0225193633873015,0.0184676768437027,100
1734086759633308200,-0.2132125425696373,0.1252129182077944,-0.7192711363941431,6.632815381467342,-0.2241233012277632,7.219827918925881,-0.5411548614501953,-0.1320953667163849,0.1822634041309356,0.4506866750168025,0.3117408185226475,-0.1863031805030458,0.8154693932278292,0.5506684184074402,0.002823484595865,0.4166885614395141,0.0064827799797058,-0.045889675617218,-0.0253845900297164,0.0055552888661623,-0.0328469723463058,-0.0620773937284946,-0.2142055630683899,-0.0052154696259647,0.0660614949285984,101
1734086759673308200,0.1260159051537513,-0.1067600005418062,-0.0340554143369197,6.616355245053768,-0.4368735965805128,7.225189738219976,-0.5264543294906616,-0.0003563074278645,0.1849847733974456,0.4513347803505923,0.3051341746440992,-0.1962421684401617,0.8152784964603658,0.6757283210754395,-0.0046896655112504,0.4397246837615967,0.0117121338844299,0.0494616627693176,-0.0072798430919647,0.0170212071388959,-0.0510394349694252,-0.013304887253046,-0.2326970696449279,0.0332047157917171,0.0704193978771567,102
1734086759713308200,-0.0703612379491329,-0.1105894591694697,0.065649991518259,6.646634647983312,-0.6082693700967357,7.1848904610574245,-0.443195641040802,-0.2437051385641098,0.0868484005331993,0.4514788844286078,0.3022282890533833,-0.2057440220795059,0.8139376142762621,0.7169431447982788,-0.0725894644856453,0.5701048374176025,0.0560885071754455,-0.0606871247291564,-0.0078992247581481,0.0218781158328056,-0.0570410266518592,-0.0653922173649072,-0.2365564405918121,0.0265507377952337,0.0538803510084748,103
1734086759753308200,-0.8537339673757552,0.0449053827185183,-0.4518915348291397,6.736736359190941,-0.7893524614233524,7.082633032631874,-0.5169883966445923,-0.2362251281738281,0.267430692911148,0.4503134598537396,0.3025926298875794,-0.2175405985549443,0.8113763996558394,0.2920203804969787,-0.0884918272495269,0.6102417707443237,0.0152928233146667,-0.0123276114463806,0.0561942458152771,0.015627110376954,-0.0495915673673152,-0.1628454603791236,-0.2108485847711563,-0.0003355886299163,-0.0105927056849002,104
1734086759793308000,-0.7752940523892641,0.1479557150874287,-0.8317465919733047,6.7648384180814025,-1.0535627122372389,7.02120679628849,-0.6577191948890686,-0.1631373763084411,0.4250728487968445,0.4475322861979528,0.2979987262623651,-0.2306834342781025,0.8109849771681844,0.1224990040063858,-0.0823703408241272,0.5886221528053284,-0.009302794933319,0.0040844082832336,0.0178827047348022,-0.013842849060893,-0.0361655056476593,-0.1837631607234477,-0.1913595348596573,0.0244306769013404,-0.1322135907500982,105
1734086759833308000,0.1162111349761486,0.2911069525025784,-0.4245721507489681,6.7934548562347885,-1.369395379064977,6.938595733097195,-0.7735114693641663,-0.024170933291316,0.4768690168857574,0.4434886377379213,0.2925921645598177,-0.2462110662508958,0.8106095166490132,0.0564113296568393,-0.0475433357059955,0.4514380097389221,-0.0427775382995605,-0.0030820369720458,0.035885751247406,-0.0197100639343261,-0.0342189632356166,-0.1476011294960975,-0.1726367026567459,0.0473089367289096,-0.1416010122984647,106
1734086759873308200,0.9394698845893144,-0.0063546297237277,0.8385954349547624,6.72511781758964,-1.6998133283451198,6.932085328289866,-0.6698282957077026,0.1546788811683654,0.3890834152698517,0.441501720582413,0.2811973404690031,-0.2597885010449606,0.8114888414711193,-0.1582274734973907,-0.152578204870224,0.2874820232391357,-0.0440298318862915,0.029355764389038,-0.0227149128913879,0.0118769332766532,-0.0391699559986591,-0.1101455513268709,-0.1541007757186889,0.0624981033585965,-0.1160837092041969,107
1734086759913308200,0.6524135226517915,-0.1215387597396969,1.2970751160025595,6.708409843894839,-1.933434306562692,6.886904124304651,-0.3826140463352203,-0.14730004966259,0.2625179588794708,0.4387628528044061,0.2753113193147397,-0.2703132950191008,0.8115549694399866,-0.1598093807697296,-0.0705070793628692,0.3014234602451324,-0.0402977466583251,-0.0336556434631347,0.0096310377120971,0.0571122802793979,-0.0662093162536621,-0.0696884532541036,-0.1308932602405548,0.0969394482731819,-0.0439817650675773,108
1734086759953308200,0.3652349956393241,0.0337467867791652,0.7249713938623666,6.744944800087809,-2.0592413912713528,6.814369049447775,-0.1528415977954864,-0.2662128210067749,0.1948783546686172,0.4356778572705116,0.2751075701807601,-0.2772718754564173,0.8109382395631132,-0.1173673868179321,-0.0375377871096134,0.2608751952648163,-0.0211487114429473,0.0244081020355224,-0.0144621431827545,0.1035956442356109,-0.093012049794197,-0.1217237609177827,-0.1212990507483482,0.0599051642559468,-0.0664145461499691,109
1734086759993308200,0.0330962139159441,0.0883781022854149,-0.1003197383612394,6.8071379291504615,-2.1547237726040183,6.722382255145907,-0.134961262345314,-0.3221112191677093,0.2204233556985855,0.4310520225531798,0.2776032572490214,-0.2831789683817457,0.81051847798443,-0.1710476577281952,-0.0067030154168605,0.2445240318775177,-0.029605746269226,0.0082292556762695,-0.0086345374584198,0.1234950721263885,-0.0838989913463592,-0.1391857678502798,-0.1238010600209236,0.0460877974361181,-0.0791740744799375,110
1734086760033308000,-0.3748129713237285,0.3065868457071483,-0.7825947307914495,6.907990166953206,-2.256663951773941,6.584643178972602,-0.2370399087667465,-0.532540500164032,0.2109038084745407,0.4262469497260661,0.282148062801407,-0.2909795675336601,0.8087254982325568,-0.1157740131020546,-0.0538326017558574,0.3554000854492187,0.0371846556663513,-0.0273844003677368,-0.0973320603370666,0.1228307038545608,-0.0809359848499298,-0.122651981678605,-0.1195942983031272,0.0744436849571764,-0.0767518157690763,111
1734086760073308000,0.0530365936607122,0.1222328794836997,-0.7284685883283615,6.946262322202324,-2.4411668249487875,6.477694962382317,-0.3928548991680145,0.390977531671524,0.5121209025382996,0.420569312374341,0.2817533712084069,-0.3005736240141169,0.8083267158200143,0.0932998433709144,-0.0584642142057418,0.3914102911949157,0.0058971047401428,0.0403975844383239,0.0005936920642852,0.1051081120967865,-0.0583506152033805,-0.1255477031201124,-0.1200913563370704,0.0698061613496393,-0.123051210129261,112
1734086760113308200,0.7730611787706613,0.1451414613842964,0.4393833509117364,6.7031321957528585,-2.688980433039367,6.633835956686735,-0.3824018836021423,0.3147105872631073,0.2229478806257248,0.420919601962499,0.2626546144577485,-0.3045998066289951,0.8130547669539732,-0.1987301558256149,-0.178796961903572,0.3303206264972687,0.0020319521427154,-0.0104517340660095,-0.0138012170791625,0.0965045243501663,-0.0260882936418056,-0.1597305432289838,-0.1571972072124481,0.0289529766313731,-0.2095721402406692,113
1734086760153308200,1.1422989803105592,-0.2493912326708436,1.5596014323174952,6.651426558434963,-2.807106461726129,6.636947366705536,-0.1053664833307266,0.0737907961010932,0.0744031891226768,0.4201093495906214,0.2573717766376591,-0.3088197115617832,0.8135713882210819,0.0961430296301841,-0.0699350386857986,0.4823399186134338,0.0375239551067352,0.0711018443107605,0.0019947290420532,0.078684277832508,-0.0061009507626295,-0.1408142458349466,-0.1654427051544189,0.0239160784427076,-0.2556014854878187,114
1734086760193308200,0.5421054742395878,-0.1771320521458983,0.686372490876913,6.645287909549475,-2.796616047371924,6.647516691514849,0.1227593496441841,-0.0615665651857852,-0.0440742783248424,0.4202684333141522,0.2572443026225927,-0.3080525167383072,0.8138203113889361,0.1834758073091507,-0.1958163231611251,0.7111899256706238,0.088169440627098,-0.0419240593910217,0.0438023954629898,0.0547315366566181,-0.008504138328135,-0.1776052226155996,-0.1478029489517212,-0.0141987673528492,-0.2794283512771129,115
1734086760233308200,0.1994073045790195,0.0050292263388633,0.0005634791016578,6.686615945237874,-2.7426488948628305,6.628532005059719,0.1211306676268577,-0.1356094926595688,-0.0827683433890342,0.4201018493958257,0.2607886754381746,-0.3066401673428509,0.813311547506666,0.4566181302070617,-0.3083030879497528,0.9983962774276732,0.0608158558607101,-0.0379015207290649,-0.042254090309143,0.0421999841928482,0.0005071759223937,-0.2120411607027053,-0.1118464022874832,-0.0540496431607753,-0.3054758157253265,116
1734086760273308200,-0.1507774214446544,0.2891986346632242,-0.374209744733572,6.720316554787755,-2.6950723201736806,6.613947599390149,0.0560048148036003,-0.0449967458844184,-0.0275945980101823,0.420036091559259,0.263744265258782,-0.3053219131080064,0.8128881092795848,1.431949019432068,-0.1277332454919815,1.1933283805847168,-0.0299625694751739,0.1285532712936401,-0.0042262375354766,0.0329513475298881,0.0386455468833446,-0.2445183659374713,-0.090965636074543,-0.1385807876944541,-0.2760579980611801,117
1734086760313308000,-0.0101619130522012,0.3797399063318967,-0.603812281090021,6.708539607754349,-2.7131886993616816,6.618495179691911,-0.1522555351257324,0.0866751298308372,0.0474319234490394,0.4202469059330057,0.2626040201642353,-0.3059244559327385,0.8129217913349834,0.8489041328430176,0.0512655302882194,0.7874112129211426,-0.0769255310297012,0.0073113441467285,-0.0153866112232208,0.0236592274159193,0.050901673734188,-0.1751893936455249,-0.0620275400578975,-0.1713051726233214,-0.1922884124845266,118
1734086760353308000,0.1206874036073684,0.0961237479761242,0.1576005454629659,6.675254593268036,-2.766406494808197,6.630110798683762,-0.1018181964755058,0.1060920357704162,0.0631403923034668,0.4206690526106935,0.259399773906714,-0.3076852106156244,0.8130678148718175,0.1888636499643325,0.3749699592590332,0.3440273702144623,-0.1201484277844429,0.0251275897026062,0.196631371974945,0.0078172851353883,0.0481915324926376,-0.1196902092635631,-0.0434729680418968,-0.1543281727287918,-0.1396446175336837,119
1734086760393308200,0.3158417269170284,0.0289855637267231,0.1782283229500055,6.647843439251184,-2.793091380377114,6.646443509325385,-0.0322097614407539,0.0005649701924994,0.0152683956548571,0.4206765703911849,0.257309436309204,-0.3080869177584834,0.8135758447332002,-0.0862259790301323,0.406037837266922,0.0948103070259094,-0.0695232525467872,0.042391300201416,-0.0258699059486389,0.0125621426850557,0.0276579204946756,-0.0835983206629753,-0.0480649955570697,-0.0939320831507444,-0.0670744713634252,120
1734086760433308200,0.1302759006857872,0.0711193628400564,0.2046680015861988,6.659530369913577,-2.80140708104074,6.631226066449284,0.0088543761521577,-0.1225964576005935,0.0261360220611095,0.4199864289072287,0.2579821418744473,-0.308782713222089,0.8134555376059402,-0.2562030255794525,-0.034622423350811,-0.15202696621418,0.033560886979103,0.0693904757499694,-0.2000845670700073,0.0262049287557601,0.0027940012514591,-0.0677963558971881,-0.0578424483537673,-0.0567285069812089,-0.0686468352466821,121
1734086760473308200,0.3528384554028511,-0.0621896219313144,0.0592448006510734,6.684618633940816,-2.798282811540365,6.607260084450244,0.0525159202516078,-0.0117812938988208,0.0038765340577811,0.4190076755027249,0.2597486293088049,-0.3092800501955523,0.8132091918212618,-0.693810760974884,-0.2630784511566162,-0.1745923310518264,0.0657916516065597,-0.0571815967559814,-0.0259135663509368,0.0081502236425876,0.0038723621983081,-0.1003174002736806,-0.061664655804634,-0.0378046108026057,-0.1238718788623809,122
1734086760513308200,0.4593371746599674,-0.196840084439516,-0.341391178715229,6.684511081913113,-2.790973949831724,6.61045800370872,-0.0018898455891758,-0.1026377826929092,-0.0594902895390987,0.418874812383928,0.259970534467716,-0.3088296649006639,0.8133777309191043,-0.0961435884237289,-0.320755273103714,0.1839130818843841,0.0834904834628105,-0.1090357303619384,0.0144973397254943,-0.0216084159910678,-0.0171722471714019,-0.1028805287599563,-0.0710755661129951,0.0113957656960934,-0.0942845498502254,123
1734086760553308000,-0.251611539068818,-0.1154734683513641,-0.1085603279620408,6.733163761401176,-2.7912366924211383,6.5607835799574845,-0.0638539791107177,-0.1383230239152908,-0.0136941783130168,0.4191930651856671,0.2624076533559539,-0.3108622539808759,0.8116550946290043,-0.0846022441983223,-0.1855547875165939,0.1938768327236175,0.08096544444561,0.0199396610260009,0.0340574979782104,-0.0380607098340988,-0.0103181134909391,-0.1612403632700443,-0.0551331862807273,0.040991424145177,-0.0216828394979238,124
1734086760593308000,0.0359445890843868,-0.1679752244830131,0.2999813099622726,6.729620389705896,-2.7984403401896354,6.561351150712371,0.0296882595866918,0.1057153642177581,0.0126214930787682,0.419424469988635,0.2619569629848389,-0.3111956516961516,0.8115534797110471,0.4319663047790527,0.1959929913282394,0.6100069284439087,-0.1233262494206428,-0.026528775691986,0.1506288945674896,-0.0129922218620777,-0.0220902338624,-0.1434714823454618,-0.0724311172962188,0.0493074901349842,-0.0434720619797706,125
1734086760633308200,-0.2941565493315458,0.0272340438842773,0.0319207403957843,6.746529438930749,-2.7961282638549805,6.544951220053434,-0.0353431366384029,0.0351683869957923,0.0170598402619361,0.4200278410429015,0.2626735860469578,-0.31193421047739,0.8107257223895491,-0.0989447012543678,-0.3676269054412842,0.1674432903528213,-0.0100255534052848,0.0891966223716735,-0.2205843925476074,0.0318089351058006,-0.026268046349287,-0.0960281786471605,-0.07194135338068,0.0223184339877218,-0.0262701672881841,126
1734086760673308200,0.0405558822721242,0.1422749660372734,-0.0676028791517019,6.737728292837739,-2.799090620791912,6.552746988496184,0.0370950326323509,-0.0177784413099288,0.0448726788163185,0.419108412105396,0.2624902908208421,-0.311451007508762,0.8114463983067689,0.0193004440516233,-0.1701443046331405,-0.1060825139284133,-0.1348068118095398,0.0329343676567077,0.0505527853965759,0.0525856576859951,-0.0164524242281913,-0.1472369723588228,-0.0741007924079895,-0.0138395055864006,-0.1551028834283351,127
1734086760713308200,0.1155979715138673,0.1974409729421138,-0.2474702014803886,6.721194506666063,-2.813555199474096,6.563523234054446,-0.0431557856500148,0.066985435783863,0.0639916658401489,0.4185966261177742,0.261462964827811,-0.3114330656788149,0.8120489698793985,0.1002922356128692,0.2663414478302002,-0.1615572273731231,-0.1336049437522888,-0.0104814767837524,0.128850907087326,0.053587932139635,-0.0297513287514448,-0.1130786821693182,-0.0634614080190658,-0.0145247113715857,-0.1720557717949151,128
1734086760753308200,0.184641112601757,0.0186918409883975,0.1501367854535579,6.6961448210835455,-2.839659947067499,6.577868570271134,0.0003083527553826,0.0611718371510505,0.0652383789420127,0.4180830242188246,0.2597066652762949,-0.3117282117541544,0.8127635017519886,-0.2107058614492416,0.3449335694313049,-0.087197907269001,-0.0150966346263885,-0.0319440960884094,0.0326702892780303,0.0345406755805015,-0.0428110063076019,-0.0883791251987218,-0.0347640216350555,0.0218448981918394,-0.1568359908312559,129
1734086760793308000,0.3961147025495767,-0.1384475167036056,0.070327335679531,6.682790833991765,-2.8442785467788574,6.589443272730708,0.0538344271481037,-0.0055869547650218,0.0237133055925369,0.417310643085132,0.2591872024485743,-0.3112135782142978,0.8135230869075718,-0.0641489028930664,0.2072405368089676,-0.057688683271408,0.0826264321804046,-0.0152258872985839,0.0220160484313964,0.0070210192352533,-0.0388332903385162,-0.1019528925210237,-0.0081482995301485,0.028930764799565,-0.1225578736543655,130
1734086760833308000,0.1877431702703237,-0.231318400363624,-0.3806599437862634,6.707107529124618,-2.8320623315453526,6.5699699259758,0.0046505075879395,-0.1906409114599228,-0.026907680556178,0.4166171323889152,0.2610302295640543,-0.3112683177796105,0.8132683141293187,-0.7533425092697144,-0.3266538381576538,-0.3954266309738159,0.2184086143970489,0.0125520825386047,-0.2169087529182434,-0.0246373582631349,-0.0121045429259538,-0.1304080026328563,-0.009866208769381,0.0270642402753233,-0.0708487292051315,131
1734086760873308200,0.1706540883034467,0.2726595877945423,-0.3566682428240776,6.71372314787209,-2.8328093505203724,6.562887858760356,-0.0787158831954002,-0.0553402975201606,-0.0292716529220342,0.4166420090386272,0.2613522101921766,-0.3115780097067672,0.8130336184389276,-0.1416828483343124,-0.3080892264842987,0.0238209515810012,0.153698056936264,0.0945419073104858,0.0361819267272949,-0.0294361151754856,0.0139636695384979,-0.1434668061703443,-0.0460456870496273,0.0623271307058632,0.001810848814249,132
1734086760913308200,0.2610357854962348,0.0604626520082354,0.4237298547059297,6.683346129786968,-2.8435724443361163,6.5891860830992455,0.0202660821378231,0.0501335673034191,-0.0298596415668725,0.4176706037632005,0.2590957564949907,-0.3113107758698398,0.8133304181229385,-0.6904136538505554,-0.5266695618629456,0.0584078915417194,-0.0313093811273574,-0.253840684890747,0.1278815269470214,-0.0065068192780017,0.0243435949087142,-0.1116226381421089,-0.0388484448194503,0.0446901325326412,0.0687479575335979,133
1734086760953308200,-0.0130745856285095,-0.034683483107388,0.4804419220089912,6.712649381160736,-2.8198034462139008,6.569583557006716,0.0821650028228759,-0.0046420162543654,-0.0362082384526729,0.4181889362337191,0.2610170026821566,-0.3113110499050838,0.8124491084367543,-0.7490659952163696,-0.4118273854255676,-0.1469064354896545,-0.125690072774887,0.0601182579994201,0.0677356868982315,-0.0041533471085131,0.0430964343249797,-0.0749012194663286,-0.0279677994549274,0.0163199972905218,0.0231003050804138,134
1734086760993308200,0.0157937814593315,0.232319978621602,-0.1235644203484058,6.73824910184145,-2.7908237277060746,6.555736233440041,0.0485417656600475,-0.1073231324553489,-0.0377781838178634,0.4179518387722251,0.2631614071399243,-0.3106389117031319,0.8121365328123259,0.0561740398406982,-0.0795612931251525,-0.1997509449720382,-0.1646097898483276,0.1171900629997253,0.1280773431062698,-0.0002855279017239,0.0585067197680473,-0.0521177252501249,-0.0442405492067337,-0.0388663217499852,-0.0129758014291524,135
1734086761033308000,-0.0387181454509496,0.1854638271614909,-0.2380535538375377,6.744876995548606,-2.7860157429024577,6.55096478125453,0.0142195988446474,0.0433513112366199,0.0688833072781562,0.4172622998548675,0.2638919599139193,-0.3104106612121481,0.8123414051512236,0.1855157911777496,0.2032693922519683,-0.1136535555124282,-0.0696336701512336,0.0072830319404602,0.044730007648468,0.0126933930441737,0.0293023660778999,0.0094213238179683,-0.0399294160306453,-0.001835471798852,0.0451671754598617,136
1734086761073308000,0.2676473125904798,-0.0100113986656069,0.0097509941637516,6.72327189746201,-2.804372652848065,6.56532531504035,0.0114689478650689,0.027445264160633,0.0509356185793876,0.4165190303808345,0.2625894792461395,-0.3103358356693942,0.8131729959603425,0.1380095183849334,0.2968474328517914,-0.0658160597085952,0.0088858529925346,-0.0033785700798034,0.0063402950763702,0.0263403430581092,0.0005434174090623,-0.0414396793693304,-0.030085664242506,0.0093780691981315,0.0373006798684596,137
1734086761113308200,0.054929860061407,0.0286398190289735,-0.0184650464951992,6.726945033016801,-2.803070630338788,6.56211804343164,0.059278916567564,-0.0876609236001968,0.0601612739264965,0.4152551506605159,0.2632972369411249,-0.3099994656871055,0.8137186849364776,-0.2731135785579681,0.0798513665795326,-0.0840960592031478,0.0574320256710052,-0.1008514165878295,-0.0527723878622055,0.0313969068229198,0.0207911059260368,-0.1055225677013397,-0.0373734608292579,0.0126544605202972,-0.0115033907890319,138
1734086761153308200,0.0302402399629354,0.200303376635909,-0.5446458063721656,6.761511319485306,-2.809534273394942,6.52371553980112,-0.0334357023239135,-0.2145004421472549,0.0582494065165519,0.4131921636391922,0.2657660179807322,-0.3110490434754351,0.8135656629015987,-0.5292229056358337,-0.2253227084875106,-0.2692806720733642,0.126608058810234,0.1613384485244751,-0.1598123759031295,-0.0025423280894756,0.0419883355498313,-0.0237047007143497,-0.0329371467232704,0.0551462792910635,-0.0868470933258533,139
1734086761193308200,0.3109305739998817,-0.102608726081252,-0.2510755324959755,6.7380480263113975,-2.8543799618154764,6.528522647821903,-0.0566336885094642,0.1450703591108322,0.1386547237634658,0.4118589174622404,0.2639586468371053,-0.312191954169593,0.8143919067760153,0.09424739331007,-0.5067241191864014,-0.1525858342647552,0.2337792813777923,0.0460949540138244,-0.1288598030805587,-0.0266562923789024,0.0220831148326396,0.0204693720549345,-0.0403446480631828,0.099247652150318,0.0215483994632959,140
1734086761233308200,0.5460340458601712,0.0913400208309292,-0.103947865730524,6.724257985889912,-2.8810338677242395,6.531032000294327,-0.0698488503694534,-0.0903196036815643,-0.0409337654709816,0.4117531034260469,0.2626318112507789,-0.3131047050706134,0.8145240313284284,0.7727113366127014,-0.0770761892199516,0.3372647166252136,-0.0628579258918762,0.1036848425865173,0.2468117475509643,0.00235609523952,0.0108747407793998,-0.0401817882627248,-0.0235691163688898,0.0357507470127195,0.0639326662063598,141
1734086761273308200,-0.2510387076169252,0.078561495539546,0.6859890445172786,6.717628338617086,-2.8984818461313844,6.530135343715548,0.0982857495546341,0.0476730577647686,0.0779496282339096,0.4109976127234514,0.2621552586959936,-0.3135767592815928,0.8148774720156452,0.0813965797424316,-0.2554409205913543,0.3763735592365265,0.0018994733691215,-0.2363335490226745,-0.1162981241941452,0.033963605761528,-0.0072311107069253,-0.0285731835335493,-0.0321185290813446,0.0528814030990004,0.0538899956196546,142
1734086761313308000,0.1684060171157121,0.3089201109603047,-0.0387456179797649,6.733778093907237,-2.8807416067793965,6.521345888060331,0.0619789510965347,-0.0293157361447811,0.0010526068508625,0.4104600052173062,0.2636421302321966,-0.313044273892833,0.8148735254763189,0.1116881668567657,-0.1390087008476257,-0.0791786611080169,-0.1019806042313575,0.1638140082359314,-0.0014874935150146,0.051229789853096,-0.0107610281556844,-0.0424742831140756,-0.0051242094486951,-0.021286095265299,0.0431698641628026,143
1734086761353308000,0.2587947285711765,0.1144897180110216,-0.2685807940483093,6.7273360781610005,-2.874106406548619,6.5309145113945,0.0472250171005725,0.0152686992660164,0.0347532220184803,0.409550698527894,0.2638045850990462,-0.3121268445882262,0.8156299489975616,0.0887050926685333,0.2666599750518799,-0.2780009508132934,-0.1655945479869842,0.0408852100372314,0.1848816573619842,0.051724400371313,0.0032158102840185,-0.0153910458773374,-0.008414190262556,0.0085985361929982,-0.0521329228192567,144
1734086761393308200,0.0935807854950428,0.0980424410790204,-0.049625908434391,6.714481272763013,-2.8753163668602704,6.5435986364007,0.0155950095504522,0.0427676700055599,0.0416060835123062,0.4091833421954933,0.2632314066878737,-0.3115743130053641,0.8162105625683358,0.112597107887268,0.3673580884933471,-0.157233253121376,-0.0372573435306549,-0.028701364994049,0.0141682177782058,0.0560582615435123,-0.0211834609508514,-0.0052490065693855,-0.0234847031533718,0.035611265476793,-0.0127612818956375,145
1734086761433308200,0.2288110937178134,0.0633551585793495,0.0076233344852924,6.7082385789811605,-2.8771406596779823,6.549197187060117,0.0624208115041255,-0.0411319322884082,0.04654086753726,0.4081419271299744,0.2632527699813807,-0.3110978153865671,0.8169065476020536,0.5226325392723083,0.3348909616470337,0.089941918849945,0.0492920130491256,-0.02914559841156,0.0026175379753112,0.0425931401550769,-0.0239748209714889,0.013676058652997,-0.0055693574249744,0.0881964621081948,-0.0337596462607383,146
1734086761473308200,0.3243593798935413,-0.1461196587666869,-0.0926560718655586,6.716389152210951,-2.872370084275305,6.542935204055905,0.0556016117334365,-0.0385891795158386,0.0201161988079547,0.4071022478757774,0.2641954018018967,-0.3108117521019587,0.8172299057160941,0.6616402268409729,-0.0218552835285663,-0.0968372225761413,0.1322834491729736,-0.004179298877716,-0.1120541393756866,0.0179086383432149,-0.0096080489456653,-0.0246557178288698,0.0075664352625608,0.0708436877038329,-0.0587123012095689,147
1734086761513308200,0.2320475914210081,-0.1132367953404784,-0.1469371126294135,6.74076488405466,-2.8660478955164552,6.52060120717287,0.0223931744694709,-0.0228898711502552,0.0240720827132463,0.4062921050790855,0.2659555379354459,-0.3111422920677285,0.8169362420331333,0.2276504635810852,-0.4142615795135498,-0.0711303278803825,0.2481191605329513,0.0340939760208129,-0.2322078049182891,0.002539244480431,-0.0110866129398345,-0.0075514382928609,-0.0012317821383476,0.0879033974457532,-0.0003109656453132,148
1734086761553308000,0.2483095749139785,-0.0381456062600016,-0.19472528424263,6.740216018000245,-2.8672178160786626,6.520654398664831,-0.0027521338779479,-0.0224979519844055,-0.0105242058634758,0.4058972741862016,0.2660491060957426,-0.3110578874538914,0.8171341882480997,-0.1310232728719711,-0.2813112437725067,0.0437247529625892,0.0071757286787033,-0.0367029309272766,0.0105021297931671,0.0354528576135635,-0.0252447295933961,0.0036281273692846,-0.0117923785001039,0.0571913752526044,0.0630447774559259,149
1734086761593308000,0.0413911640524864,-0.0410834132775664,-0.04545008405447,6.755896986734867,-2.8614371868506074,6.506951452004909,-0.0058860112912952,0.2235093712806701,0.0353297218680381,0.4065021015098706,0.2667940793475871,-0.3115425067647874,0.8164056227607226,0.4133287072181701,0.2672533690929413,0.8026960492134094,-0.2061978578567505,0.0394535660743713,0.3821971416473388,0.0932392105460167,-0.0535339638590812,0.0058855509072542,-0.0255925022065639,0.05365618686378,0.0212134684205055,150
1734086761633308200,0.2545242116451263,0.225824186861515,-0.0927566096305847,6.723226889276504,-2.85301159607172,6.544381895732879,0.0178550537675619,-0.1049685627222061,-0.066401869058609,0.4069253274631098,0.2650814082025789,-0.3099374708350383,0.8173630740103919,-0.6899353265762329,-0.4541352093219757,0.2142715901136398,0.0915832370519638,-0.1431728601455688,-0.2737525105476379,0.0995551347732544,-0.0775144025683403,-0.0790530784487724,-0.0295075681060552,-0.0560078645564615,-0.0401940632224082,151
1734086761673308200,0.0335895503908395,0.0473778372466564,-0.0390554145812988,6.74708882637918,-2.825998793722689,6.531531766510009,0.0628900676965713,-0.092194490134716,-0.0179548040032386,0.4069093071787943,0.2669969815207037,-0.3093496055741359,0.8169701408814525,-0.1013897508382797,-0.1534677445888519,0.0596547164022922,-0.0858600735664367,0.1493777632713318,0.0769290924072265,0.0621319413185119,-0.0486157909035682,-0.1281055709093809,0.0003910940140485,-0.0936818347167223,-0.0874941590577363,152
1734086761713308200,0.0926689313471317,0.0050853404402732,-0.1603589042603969,6.7842264246404165,-2.806151645219326,6.501551054266095,0.0401912592351436,-0.0781554952263832,-0.0052013956010341,0.4060149135287279,0.2697932415122434,-0.3093941616303238,0.8164795038503322,-0.0084494268521666,0.2766958475112915,-0.0664018169045448,-0.1142527908086776,0.0292503237724304,0.157271146774292,0.0553924068808555,-0.0494611747562885,-0.0901946501880884,-0.0016200873069465,-0.0198290283247828,-0.0512958874732255,153
1734086761753308200,-0.0861433289706707,0.0379345938578248,-0.0603261661469936,6.788561238974332,-2.799646208848059,6.499830806344747,0.0292307548224926,-0.0168710947036743,0.0259461384266614,0.405532374267209,0.2703610333249263,-0.3090400824834609,0.816665539644722,-0.1955854892730713,0.5052978992462158,-0.0308650620281696,-0.0501387417316436,-0.0313062667846679,0.0537731051445007,0.072798378765583,-0.0601623430848121,-0.1274941610127687,-0.0046171629801392,0.0148769588753581,0.0136643682152032,154
1734086761793308000,0.0121107090324163,-0.1349769179835915,0.0857365017354488,6.794155697980523,-2.7979201157078144,6.494726761204004,0.0659817159175872,-0.0716879516839981,0.0265225600451231,0.4046038868594656,0.2710537653764952,-0.3088542510231193,0.8169666971037377,0.0161861442029476,0.3283006548881531,-0.0419935472309589,0.0208993703126907,-0.0507045984268188,0.0118697881698608,0.0748762935400009,-0.0530932545661926,-0.1440665256291627,-0.0028748225886374,0.007911211515963,-0.0561789833396673,155
1734086761833308000,0.0087806878268718,-0.0492325252026319,-0.060642392489314,6.812897807851433,-2.785202672953904,6.480543922072648,0.0632160976529121,-0.0813108906149864,0.0333549492061138,0.4032632671436735,0.2728672214482799,-0.3084277569590458,0.8171869455368296,0.1832813918590545,0.0587773509323596,-0.1429148316383361,0.0734904035925865,0.0594496726989746,-0.0746741294860839,0.040978729724884,-0.0324096158146858,-0.133361007219553,-0.0156191950663924,0.0069143824983388,-0.1125461827278137,156
1734086761873308200,-0.1030740055054426,0.0498316601395606,-0.3442383848398924,6.83407152878344,-2.789546547377109,6.456335948011279,-0.0208586063235998,-0.1038915514945983,0.0566689223051071,0.401968302830044,0.2744025130197021,-0.3090659262151282,0.8170696939863039,0.1801878660917282,-0.5260103344917297,-0.2013797312974929,0.1765777766704559,0.0381491780281066,-0.1316896975040435,0.0365150272846221,-0.0279788821935653,-0.11930442481637,0.0037410827353596,0.0341591669723391,-0.0602443330824375,157
1734086761913308200,0.1831371377795934,-0.0044283378362655,-0.4167366348177194,6.841449948596954,-2.809955713677406,6.439649601626396,-0.0584668144583702,-0.0168649088591337,-0.0186376143246889,0.4014522739235758,0.274527297414971,-0.3103288728386414,0.8168027434155016,0.1153622642159462,-0.4102682173252105,0.0398546457290649,0.1038440763950347,-0.0645772814750671,0.042926862835884,0.0532843321561813,-0.0210335478186607,-0.1814391016900539,0.0224232785403728,-0.0743266344487667,-0.1465285318285226,158
1734086761953308200,0.1260480538576841,0.05820668977499,0.1990419783979654,6.845567905309796,-2.799268023185432,6.439929587611556,0.0496570169925689,-0.0128106055781245,-0.0392024926841259,0.4019304400837801,0.2748158604540735,-0.3100503450068077,0.816576456305332,0.2242762297391891,0.2330099642276764,0.313574880361557,-0.0483543947339057,-0.0901464223861694,0.1586852669715881,0.0852331146597862,-0.030598621815443,-0.1547457405537367,0.0487411022186279,-0.1166894930776208,-0.1328384446501732,159
1734086761993308200,0.0834375771433115,0.0674918199926614,0.1361608670711517,6.859597599706054,-2.779224475327134,6.433678710523247,0.0429365597665309,-0.090887926518917,-0.0303090810775756,0.4018595421406473,0.2760675723399013,-0.3094517489570973,0.8164161341957965,-0.4473450183868408,-0.2834545075893402,0.1097063645720481,0.0892306193709373,-0.2146307826042175,-0.3159241676330566,0.1105679050087928,-0.0559285655617713,-0.0668026686847209,0.0593793168663978,-0.1170999735746532,-0.1033551605343818,160
1734086762033308000,0.2806096700161695,0.0823787157401442,0.3156067491173744,6.879400032284855,-2.746077700267732,6.426763816568255,0.0815591737627983,0.025835083797574,-0.0508898012340068,0.4020475724991635,0.277839051840572,-0.3084342494608312,0.816107539427903,0.0893407836556434,-0.3190672099590301,-0.1845000386238098,-0.0305847078561782,0.1815990209579467,-0.0607238858938217,0.1091622561216354,-0.0597363486886024,-0.0373129548281431,0.0743298977613449,-0.1718688709206879,-0.0715565852135419,161
1734086762073308000,0.1793301467120647,0.0506488217413425,0.2091097834259271,6.878326850095391,-2.712551862762868,6.442131481570005,0.099792942404747,-0.0258637443184852,-0.0403291769325733,0.4023645098009528,0.2784360791833721,-0.3066203909468092,0.8164312169316325,0.1071000769734382,0.0980492830276489,-0.3912655115127563,-0.0889516174793243,0.0883799791336059,0.1230558454990387,0.0930768549442291,-0.0625802800059318,0.0099520696938037,0.0670764446258544,-0.079381141359359,-0.0538946717947721,162
1734086762113308200,0.1198474456518888,0.0086506317064166,0.0560942276656627,6.896659794643521,-2.675492005912959,6.438028137904405,0.1103977039456367,-0.0440586656332016,-0.0304161291569471,0.40208330169058,0.2803964626068625,-0.3051716479566158,0.8164417241497801,0.2920401096343994,0.2154535055160522,-0.2392271906137466,-0.0109393894672393,-0.0206885337829589,0.0199397802352905,0.0955633446574211,-0.0904651284217834,-0.0003460369586944,0.0421163216233253,0.007385799402371,0.0506499907851219,163
1734086762153308200,-0.0927045871824026,0.2456409402266144,-0.3982897085011005,6.921416634759306,-2.6471748429670927,6.423148548680543,0.0370782427489757,-0.1339669078588485,0.0006486687343567,0.401412207569637,0.2826526175030792,-0.3043321485788422,0.8163073489010162,1.3251346349716189,0.2772867381572723,-0.0047344584017992,0.0656674057245254,-0.064137578010559,-0.0497438013553619,0.1155736967921257,-0.0896565392613411,-0.0578717587321996,0.028240343555808,0.0643377398759126,0.108123690110445,164
1734086762193308200,-0.0627583617299795,0.2497568511128425,-0.4618786758363246,6.954467840489745,-2.653235750441253,6.384834307855368,-0.051235906779766,-0.1083259955048561,0.0110930539667606,0.4005191726717919,0.2846581548776787,-0.3056693951011914,0.8155492022190128,0.5338234305381775,-0.1342648118734359,0.0134403510019183,0.0981114953756332,-0.0694603323936462,0.031473308801651,0.1089833825826644,-0.0626111105084419,-0.0689110391408205,0.0151875996962189,0.0637500031158328,0.1120060845017433,165
1734086762233308200,0.3925830212920904,0.0764192228138446,-0.3711836749106645,6.976769688668846,-2.656171511632204,6.359231664565205,-0.0946730226278305,0.0009364580037072,-0.1106101498007774,0.4012904779245045,0.2855252281912614,-0.3069931024739495,0.8143688278433163,2.678997039794922,0.111080028116703,0.4646862745285034,-0.0154546052217483,0.1384417414665222,0.0703388750553131,0.0838699862360954,-0.0285418853163719,-0.0279383927613496,0.0147340735420584,0.0653569999210536,0.1108773727327585,166
1734086762273308200,0.1457037714421749,0.1537795258700847,-0.3281114259034395,7.003532023388147,-2.648238380545377,6.3330684647828335,-0.109291061758995,-0.0878801494836807,-0.1246305257081985,0.4034790524163944,0.2863509764241619,-0.3083933993548168,0.8124661503564649,1.2261401414871216,-0.1010646149516105,0.2967670857906341,0.0390407592058181,-0.0949848294258117,0.0544895231723785,0.0944450125098228,-0.0300793666392564,0.0131248545110225,0.0244972743093967,0.0697447865512222,0.2051870570242404,167
1734086762313308000,0.176179573726654,0.0343672567650675,0.1112280858665704,7.036352342972159,-2.6497330030173063,6.295954247397184,-0.1343801468610763,-0.0352449975907802,-0.0996268540620803,0.405570555251919,0.2873201158240889,-0.3105524202164557,0.8102572813304588,-0.1045676991343498,-0.1087045297026634,0.1240715980529785,-0.0187498778104782,-0.0926036834716796,0.0683167874813079,0.1247384399175643,-0.0363963022828102,0.0096726682305336,0.0132285691797733,0.0458742277506738,0.1331079092413186,168
1734086762353308000,0.1445195300936698,-0.0116591658726334,0.4831996962845325,7.043622041714191,-2.6417148239955304,6.291193316605686,-0.0019491401035338,0.0018010777421295,-0.0879203528165817,0.4074727161563781,0.2871773894938973,-0.3110748250662539,0.809152359278105,-0.4036654531955719,-0.166909247636795,0.1451712250709533,-0.008615992963314,-0.0644134283065795,-0.0419769883155822,0.146690085530281,-0.0723931938409805,-0.0258949042350053,-0.0336449444293975,0.043758112379536,0.0160001176863908,169
1734086762393308200,0.1573515391379594,-0.1041501103043556,0.4518406814247369,7.06326197720766,-2.5947134188458323,6.288734817537665,0.1483316421508789,-0.0636465325951576,-0.0827207267284393,0.4083083293808431,0.2890448673766647,-0.3095429176624313,0.808653614077694,-0.1444562673568725,-0.0446804389357566,0.1998336017131805,-0.0368703976273536,0.0425413250923156,-0.0715802907943725,0.1689038574695587,-0.0811760500073432,-0.0261228677719831,-0.0261715985834598,0.0390944314174354,-0.0062537996977567,170
1734086762433308200,0.1480868671864271,0.0226870481044054,0.1442383750647306,7.088835978925228,-2.5304636495143176,6.286138371303677,0.2117538750171661,-0.0960553660988807,-0.0431884713470935,0.4077080850512791,0.2921984948341901,-0.3067836180645457,0.8088744302558382,0.0091852266341447,0.1413857191801071,0.0837209746241569,-0.0519693791866302,0.092078149318695,-0.0306114554405212,0.1655922532081604,-0.0782225802540779,-0.016121113717556,0.0063287578523159,0.0313685864057391,-0.0145920044541358,171
1734086762473308200,0.1395300512433052,0.1630851143538951,-0.1890811408758163,7.113554240596294,-2.468701313084364,6.282772694262862,0.2088249176740646,-0.0747454836964607,-0.0252948813140392,0.4065586067517921,0.2954525795224028,-0.3039333932692349,0.809346816955831,-0.0840618908405304,0.2120969146490097,-0.1039513275027275,-0.0199418514966964,0.0455242395401001,0.0320350527763366,0.1395680010318756,-0.0636101067066192,-0.0336760596305131,0.0288872420787811,0.0423422542322427,-0.0120703770220279,172
1734086762513308200,0.2158732862114906,0.0890695916809141,-0.5107967282623053,7.150037174341082,-2.406656506451219,6.265409471529722,0.1394025981426239,-0.154321476817131,-0.0167516004294157,0.4046055925522414,0.2996629027461738,-0.3012559757922085,0.8097785277785966,-0.708301842212677,-0.2947644591331482,-0.2853498756885528,0.1380225718021392,-0.0331557393074035,-0.1220186352729797,0.1116512194275856,-0.0680921152234077,-0.0005424363136291,0.0413070805370807,0.0846826818335801,0.0411988563507795,173
1734086762553308000,0.1237199031710624,0.164517777505517,-0.5495440998077392,7.191762684914469,-2.3730193175263703,6.230385504421592,0.0739251226186752,-0.1154152974486351,-0.0152956889942288,0.4033757958358709,0.3032355095776012,-0.3006442708980464,0.8092892521908733,0.0849076882004737,-0.2733039855957031,-0.1737557053565979,0.0237381607294082,-0.0197587013244628,-0.0708806216716766,0.1191233322024345,-0.0550962388515472,0.0248462719649076,0.0416764728724956,0.1271810764756053,0.1252349839091301,174
1734086762593308000,0.2938713026493788,0.1971978118360042,-0.3484212234824895,7.19578945621252,-2.355271333259344,6.232470494002103,0.0212105754762887,0.0698034539818763,-0.033112846314907,0.4033788503581689,0.3038739381854508,-0.2998217230943059,0.8093534296583527,0.4347586333751678,-0.0305752176791429,0.0054195090197026,-0.0293089747428894,-0.1129660010337829,0.1311171054840088,0.1331463456153869,-0.0455879978835582,0.0939379283696413,0.0440352708101272,0.110991573696956,0.2101695216119289,175
1734086762633308200,0.21865327231884,0.1782952507063746,-0.1198094517290592,7.192448329091072,-2.332777323509008,6.244775848823785,0.0362546779215335,-0.0356452725827693,-0.0803085640072822,0.4043750236491605,0.3038439363449721,-0.298804099777838,0.8092440519309603,0.4248098731040954,-0.0326616466045379,0.0652994215488433,0.0182282254099845,-0.0056185722351074,0.0885537564754486,0.1244334578514099,-0.0449241138994693,0.1235235038161277,0.0676673948764801,0.0929837694499641,0.1926741969317197,176
1734086762673308200,0.3285825505465269,-0.0063313949786126,-0.0830576379150152,7.234849546968936,-2.284919447660446,6.213410988745093,0.0908000469207763,-0.1866633892059326,-0.1586295366287231,0.4050354677485108,0.307098653784374,-0.2981520289681944,0.8079244608233483,0.9691455960273744,-0.0955017581582069,0.0753957331180572,0.0409266278147697,0.0579004287719726,-0.0358986854553222,0.0998681336641311,-0.0559116937220096,0.09412672894001,0.0716929733753204,0.1022096437610685,0.2092705269455909,177
1734086762713308200,0.4348983144521713,0.2104160437189042,-0.2322667871296405,7.318723761963843,-2.18563241334781,6.150583653432131,0.1407680064439773,-0.4340365827083587,-0.3501335084438324,0.4066630321685351,0.3135651514421025,-0.2967901572282698,0.805119688791015,2.6896331310272217,0.1028849929571151,0.2904218137264251,-0.0306124463677406,0.0441759824752807,0.1543262600898742,0.0930175855755806,-0.0624553896486759,0.0102250414162874,0.0873301848769187,0.0631060791891068,0.3033049014270305,178
1734086762753308200,0.5454033467411995,0.372915321008861,-0.2244961531281471,7.514826179778575,-2.0080051250308752,5.972075929018855,0.1776881366968155,-0.7762925028800964,-0.5699928998947144,0.4091853680119753,0.3280608819532023,-0.2964538953447501,0.7981594707672645,3.128474235534668,0.2145738154649734,0.9920626878738404,-0.0103424340486526,0.0516127347946167,0.0454457402229309,0.1197278499603271,-0.0842483341693878,0.0043377369433641,0.0941299349069595,0.0538792550299316,0.3440630282729864,179
1734086762793308000,0.0568400775969028,0.795624600495398,0.4136076891422272,7.695135400655865,-1.7974483576670288,5.807276411962508,0.3102414309978485,-0.3325059413909912,-0.4912978410720825,0.4129601055176054,0.3422555657568236,-0.2945715971858754,0.7909189404620949,2.725424289703369,-0.0143068199977278,0.9289606809616088,0.0017802380025386,-0.0384799838066101,0.1170325279235839,0.1583627462387085,-0.1212004646658897,0.1104857430666685,0.0908531621098518,-0.0103356621839106,0.3715723819673061,180
1734086762833308000,0.7163491114675998,0.8929682456552982,-0.4588783249765634,7.847260729578137,-1.524139512183517,5.680481923651695,0.5003296732902527,-0.734386146068573,-0.6570939421653748,0.4147488697418283,0.357385100641046,-0.2874924440337938,0.7858799763910511,1.0740984678268433,-0.279563844203949,0.7142962217330933,-0.0143333170562982,-0.196614921092987,0.1213143467903137,0.2022682875394821,-0.1642759144306183,0.2579319742619991,0.1157991513609886,0.0191951143354177,0.5354512770473957,181
1734086762873308200,0.3108826432049274,1.2595546559035775,-0.1661877565443515,8.072115194624661,-1.2001485272109509,5.437921121522784,0.2885056436061859,-0.9829089641571044,-0.7636083364486694,0.4185281633647789,0.377919676607078,-0.2827010989025005,0.7759452439690527,-0.0011145488824695,-0.2863803505897522,0.7317671775817871,0.0279558096081018,-0.0863726735115051,0.0971919894218444,0.243987888097763,-0.2009855508804321,0.2495440851449966,0.1785182654857635,-0.037796062169969,0.58878246974051,182
1734086762913308200,-0.1659615465730428,1.1377159633692353,0.7650584895789623,8.325550441989302,-0.9020367374476044,5.103129779464006,0.4942682087421417,-1.1874303817749023,-0.604607343673706,0.4205652646649483,0.4010295773386326,-0.2810481525507034,0.7637487784115057,-0.8472988605499268,-0.6223524212837219,0.8112928867340088,0.0450947061181068,-0.1277561783790588,0.0129597187042236,0.2354905754327774,-0.1855304837226867,0.4847101008474826,0.2382601052522659,-0.1624275272279977,0.56962885645926,183
1734086762953308200,0.153875971981883,1.2916735492199658,0.1793704787224531,8.587952839663624,-0.5985520224742591,4.696720769654214,0.6146101355552673,-1.2526136636734009,-0.5034348368644714,0.4168948277531918,0.4281436176612611,-0.2778973405883414,0.7521069431839664,-1.7575544118881226,-0.790726363658905,0.9067265391349792,0.0135678527876734,-0.2046201229095459,0.0166283845901489,0.1957311183214187,-0.1936026513576507,0.6608534342169762,0.309482991695404,-0.1336599901661276,0.6433855820655823,184
1734086762993308200,0.5295283167392015,1.290795743472129,0.1252776540070772,8.787207584029435,-0.3138118650572374,4.3424519891873,0.6177822351455688,-0.728183925151825,-0.5404726266860962,0.4135022988816206,0.4515826644795765,-0.2732574949241758,0.7419025108584595,-2.598531007766724,-0.5936301350593567,1.3282983303070068,-0.036598302423954,-0.3076617121696472,0.1287165880203247,0.1412396728992462,-0.2482562065124511,0.6439402933388948,0.3898464739322662,-0.0961602805942297,0.9373208898618816,185
1734086763033308000,-0.0257885212510824,1.032945894535631,0.1301119422957301,8.82597541384101,-0.0378558523660758,4.274470924372971,0.6595437526702881,0.2726273238658905,-0.3284574747085571,0.4131868454854243,0.4625539581950836,-0.2609721733477098,0.7397391060787916,-2.31059193611145,-0.2157863080501556,2.372422456741333,0.0506135635077953,-0.4421826601028442,0.1578090190887451,0.1576953083276748,-0.3006374835968017,0.4107452854484319,0.4947330951690674,-0.0295339183244854,1.2314207405701278,186
1734086763073308000,-0.4469447260767221,1.102608482696116,-0.6470873591929673,8.74180601529181,0.1615301034642383,4.441298147864639,0.5489050149917603,0.5208320021629333,-0.2121454924345016,0.4137719194662399,0.4618713789086889,-0.2454213456651353,0.7451416394518764,-2.576765298843384,-0.0307319182902574,3.532145738601685,0.117719292640686,-0.6546888947486877,0.1370537281036377,0.1796213835477829,-0.3504948616027832,0.2975596357733011,0.5332656502723694,0.1145742544893175,1.1686056802168487,187
1734086763113308200,-0.183994046869874,1.1289325721286236,-0.2402291443109512,8.680268719789385,0.3282385228818282,4.551438730755448,0.5462483763694763,0.1532959342002868,-0.2346633821725845,0.413888729779697,0.4621749441760844,-0.2330998202441541,0.7488358097470484,-2.854522228240967,-0.0806894674897193,4.372865676879883,0.1734401285648346,-0.5030406713485718,0.1669296026229858,0.1763205677270889,-0.3851962983608246,0.0921025296360254,0.4455298185348511,0.1780732054535299,0.9253340994700788,188
1734086763153308200,0.0129740478634834,0.7634324958123266,-0.2745218745350837,8.677379428088665,0.5381153451574966,4.536948725371063,0.6186531186103821,-0.1370723843574524,-0.2990517914295196,0.4122687672908836,0.4687284245673156,-0.221299908327258,0.7492359334919807,-3.122563123703003,-0.053077757358551,4.962479591369629,0.1742670834064483,-0.3407975435256958,0.1417846977710724,0.1413960605859756,-0.351440966129303,0.0286935950428247,0.3640695810317993,0.0323265447176992,0.8375324818983674,189
1734086763193308200,0.3223117997139692,0.6595257658097893,-1.3939376996472477,8.703977512156962,0.7362935828655958,4.457468069159984,0.0320871658623218,-0.118959717452526,-0.5960103869438171,0.4127269555592462,0.4766811330553435,-0.2133248144458362,0.746273373643791,-3.264517068862915,-0.014329882338643,5.268704891204834,0.2526492476463318,-0.0891482234001159,0.1624901443719864,0.0886557474732399,-0.2321953773498535,0.1558820511072874,0.3701302707195282,-0.0540578264672309,0.8374076864749193,190
1734086763233308200,1.9546891299068927,-0.0623612521711736,-0.2814309232711792,8.598502875250578,1.0707691369734704,4.592340649986267,-0.0450311414897441,1.30934476852417,-1.5644060373306274,0.4310719959198619,0.4742456635897158,-0.2023532643393339,0.7404871573911239,-3.5401668548583984,-0.0206487122923135,5.519797801971436,0.2951180934906006,0.01246839761734,0.1942116618156433,0.0596312209963798,-0.259676992893219,0.7290975338816642,0.3817397654056549,0.1299921883735805,0.8244766009703278,191
1734086763273308200,2.539584529080986,-0.5462785221405327,-0.3606149346232414,7.886565150484442,1.8960097080536185,5.511590168845653,1.1850016117095947,4.507442474365234,-2.5384271144866943,0.4680672760588477,0.443873751123391,-0.1481998773927544,0.7496172404170907,-3.2961981296539307,-0.1074539124965667,5.498325824737549,0.5581128001213074,0.5374765992164612,0.1185918450355529,0.0326920002698898,-0.2585060000419616,0.7195569675981998,0.453401505947113,-0.1188379763484001,0.8087555924862623,192
1734086763313308000,-2.723611893698573,3.009235592484474,-2.320374791923165,7.246856795626878,2.2188028615437445,6.223372410789132,-1.6419990062713623,1.192720890045166,-0.9603031277656556,0.5027349692172954,0.4092671642135285,-0.1232749417689024,0.7513728996036338,-3.115252494812012,-0.0243350062519311,5.297762393951416,0.5801517367362976,0.4603608548641205,0.0965113639831543,-0.0338114649057388,-0.2381346225738525,1.1165876159489154,0.5526971220970154,-0.0284600054826587,0.7797507395371794,193
1734086763353308000,0.9503986903607844,0.601320756535232,-2.319513791179657,6.67603142285943,2.113254867140204,6.865504193401336,-1.675073266029358,1.7733755111694336,-1.0178505182266235,0.5335035727836792,0.3687237591500636,-0.1183194800042277,0.7519423475558159,-2.672280550003052,0.0457339324057102,4.761599540710449,0.6212556958198547,0.7399231791496277,0.0746001005172729,-0.1189657598733902,-0.2864648401737213,0.9227285931468008,0.6543846130371094,-0.0705177802177146,0.7036378061935306,194
1734086763393308200,1.6150240443319082,0.6580623421937227,-1.9617893173009155,6.032205695810914,1.9079232870787384,7.4928440650731325,-1.7966521978378296,2.1386966705322266,-1.4266343116760254,0.568280978435744,0.3233989545223994,-0.1156909364964285,0.7477202651623133,-1.6747267246246338,-0.0192289799451828,3.380253314971924,0.4886183142662048,0.987129271030426,0.0817949771881103,-0.2874732911586761,-0.0956057012081146,0.877908623689413,0.7377023100852966,-0.2977933714639395,0.4086185025528073,195
1734086763433308200,1.7572493260085582,1.6883130062960088,-2.550048639950156,5.36265691396296,1.6762885142423212,8.03755884502828,-2.2001302242279053,1.349946141242981,-2.095041036605835,0.6100182518569318,0.2776711160462093,-0.1144434792555642,0.7332660707982815,-0.8629571795463562,0.1084946319460868,1.6031957864761353,0.3144150376319885,1.0975040197372437,0.0131556987762451,-0.4117996990680694,0.0133175030350685,0.8477963940203189,0.7266388535499573,0.1123530713085085,0.0595814852595329,196
1734086763473308200,0.2935223430812358,0.9059795567892492,-0.7592723073929548,4.963994865018129,1.373899120225012,8.345150629994272,-2.016867160797119,0.1866595298051834,-1.5855002403259275,0.6520159536960842,0.2427935501826494,-0.1247678605505545,0.7073609156919511,-0.2679078876972198,0.4559527635574341,0.006965939886868,0.0471430420875549,1.075529932975769,-0.1313498020172119,-0.4746504426002502,-0.0726159065961837,0.6873375365167855,0.6289387941360474,0.4267551573438569,0.0918348186105489,197
1734086763513308200,0.8596557586401701,-0.623527327646315,1.0879022042125464,4.97606056586504,1.1070062792636453,8.377573474693298,-1.0737804174423218,-0.5229461789131165,-1.0584677457809448,0.6756746952375007,0.2288562006632855,-0.1431344133430517,0.6860036643044269,1.1723909378051758,0.5343754291534424,-0.9097889065742492,-0.0279740691184997,0.9999201893806458,-0.3155487775802612,-0.4148366153240204,-0.1635126173496246,-0.0709574502766132,0.6027522087097168,0.80182681613639,0.1710574084073305,198
1734086763553308000,0.5008662858784199,-1.2203764186602084,0.3518354158401489,5.21364357958138,1.1069511150103062,8.231825864109396,-0.3286803364753723,-1.1800353527069092,-1.1461496353149414,0.690954350427297,0.2346192855284777,-0.158894509588496,0.6650476346079699,2.5783724784851074,0.3749476969242096,-1.4053339958190918,-0.0216053128242492,0.8689661026000977,-0.28261399269104,-0.2916259467601776,-0.2043751627206802,-1.10889530788064,0.5133393406867981,0.6727243431441485,0.1065190313927829,199
1734086763593308000,-0.462252769845724,-1.101233102689683,-1.5340373674720524,5.58509555003941,1.2535640371866523,7.962767515677213,-0.4002745151519775,-1.3416229486465454,-1.050931692123413,0.7025661248819032,0.2514050559965454,-0.175520162952828,0.6421752129940955,3.521239757537842,0.0413879230618476,-1.7245153188705444,-0.0015055537223815,0.7445661425590515,-0.1827492862939834,-0.2278321087360382,-0.0186693519353866,-0.965573463138938,0.2196483314037323,0.5846027729030698,-0.5732305342130363,200
1734086763633308200,-1.347983465462923,-1.4546340142808851,-3.507803538292646,5.9183647970974445,1.2571123773179949,7.717707882469892,-0.9521378874778748,-1.1032804250717163,-0.7146599888801575,0.712902152973955,0.2607631287936177,-0.1962371241211205,0.6206965401820069,4.088474750518799,-0.3497040867805481,-1.8847191333770752,0.1757291555404663,0.5360158681869507,-0.0511025041341781,-0.3046576976776123,0.173456996679306,-0.7435749720454216,-0.1757748126983642,0.3525428699897602,-0.7811920243866741,201
1734086763673308200,-1.50931209153831,-1.5485631748221813,-5.121332960152626,6.248185365006327,1.005528310777992,7.491293328499793,-1.5374622344970703,-1.3179032802581787,-0.3331209719181061,0.7207445941877204,0.2593669613554281,-0.2253422329279131,0.6020605138489352,4.2279229164123535,-0.889681875705719,-1.8976402282714844,0.3937277793884277,0.3477016687393188,0.1027063131332397,-0.4594490230083465,0.320894181728363,-0.7542880892395972,-0.3720254898071289,0.2524331028510816,-0.270797008793056,202
1734086763713308200,-1.094456448161602,-1.9047848429225385,-5.284352608054876,6.62446314818561,0.5338049711450934,7.211235447147488,-2.1425278186798096,-1.286115288734436,-0.3101055026054382,0.7273379203519198,0.2493420361952191,-0.2648732881582388,0.5819365192640574,3.026418685913086,-1.266391396522522,-2.250183820724488,0.3523659110069275,0.1221929192543029,0.3085033893585205,-0.5601221323013306,0.2981589734554291,-0.3838029179871082,-0.2443438023328781,0.5036401345059275,0.3692902623794972,203
1734086763753308200,-2.4413959575295445,-1.6313528094507752,-6.01850508723855,7.076270511862635,-0.0173544457716401,6.789438021808862,-2.23707127571106,-2.208108425140381,0.0349738337099552,0.7310713612423407,0.2372848036787278,-0.3122993880879785,0.5583006614353117,2.0400421619415283,-1.4397354125976562,-2.474067449569702,0.3223291039466858,-0.0111394226551055,0.3864115476608276,-0.5741544365882874,0.2511889338493347,-0.5752262380748987,-0.0263840407133102,0.3886282192517071,0.713959585982561,204
1734086763793308000,-2.261799268835783,-1.3745806727483867,-6.213992588025331,7.754995702856779,-0.9275940802913158,5.930428744378686,-3.2085039615631104,-3.233893156051636,1.185736894607544,0.7167668325640164,0.2224889222252282,-0.384877837436227,0.5372271315762096,1.2512612342834473,-1.3688766956329346,-2.4852898120880127,0.244075059890747,-0.1592093706130981,0.4590739607810974,-0.5229895114898682,0.2645253837108612,-0.4500122969537973,0.1165953129529953,0.5206482601910829,0.882264334680885,205
1734086763833308000,-0.8184013727098703,-2.690473009684682,-3.852828397335112,8.429717503428458,-2.0027606485061344,4.593384898342192,-2.927055597305298,-4.066874027252197,1.4201565980911257,0.6861823731936878,0.2049774494641601,-0.4730610935300681,0.5131774527552508,0.93942791223526,-1.2108023166656494,-2.301891326904297,0.2030030488967895,-0.2386342585086822,0.530316948890686,-0.4727708697319031,0.2728558182716369,-0.190129773145914,0.2046798467636108,0.554322200929746,0.7580014106743037,206
1734086763873308200,1.4201187273472546,-3.716801678037643,-1.6027873708322644,8.940787787935138,-2.9281550998613235,2.7674162563726306,-2.677692651748657,-4.670165061950684,1.5846405029296875,0.6358976468358413,0.1978797708153069,-0.5654596612993803,0.4865521947723937,0.6455840468406677,-0.7971992492675781,-1.805780053138733,0.0724901556968689,-0.4180344343185425,0.5919405221939087,-0.4235967695713043,0.2702527046203613,0.362570160344243,0.2356645315885543,0.7154520164974033,0.67684346890077,207
1734086763913308200,1.8464257390648124,-3.911519363495708,2.3494302060157057,9.019508273428675,-3.7645898496508594,0.8041825854822993,-1.9926337003707888,-4.422641277313232,2.1512513160705566,0.5731377686071206,0.1885154008975733,-0.6507380756240535,0.4609934155584102,0.8097963929176331,-0.1804891377687454,-0.7975062727928162,0.032878041267395,-0.5219487547874451,0.5206540822982788,-0.267935961484909,0.1347853243350982,1.084137883242965,0.1508352160453796,0.8479746731966733,0.5034207926668226,208
1734086763953308200,3.512643379539252,-2.2885779701679945,4.745345099830627,8.619823311176896,-4.60373005900681,-0.8213975588511675,-0.773360013961792,-3.311680316925049,2.4195871353149414,0.5023530727895744,0.1777732151460131,-0.714336268475339,0.4536096480190157,0.5309229493141174,0.3936774730682373,-0.0666275173425674,0.1258698105812072,-0.491845428943634,0.5247205495834351,-0.0485109388828277,-0.0120779722929,1.4159884956747293,0.115040436387062,0.9842344705976546,0.554353399785608,209
1734086763993308200,4.16564025503695,-1.4608587340146302,3.911497736185789,7.976104551634192,-5.374138092920184,-1.9159309447065,-0.1709622293710708,-3.1108944416046143,2.4380576610565186,0.4369438560555141,0.1671624570886836,-0.7548125612618259,0.4597769108928431,-0.3177835643291473,1.0009266138076782,0.3065292835235595,0.0672523975372314,-0.5998088121414185,0.4843931198120117,0.1528570055961609,-0.021675419062376,1.9112439559340475,0.1953349411487579,0.4608131654966622,0.166481478793919,210
1734086764033308000,8.033540841558574,-1.451955881112814,4.868533672603965,7.117118655079603,-6.070028353726864,-2.9447938077121973,-0.5741817355155945,-2.938760042190552,2.3099873065948486,0.3677323677798244,0.1552186651284392,-0.791233131317817,0.463282206357981,-0.7893570065498352,1.36027991771698,0.9316174387931824,0.2638764977455139,-0.5579667091369629,0.3517923057079315,0.2408353686332702,-0.0799638479948043,1.4638368730425837,0.2559546530246734,0.2196505945268086,0.1925919254757463,211
1734086764073308000,12.910813116413356,-1.2350988445609807,6.943793886262178,6.295771292045712,-6.592443623590469,-3.615704233302176,0.5587843656539917,-1.797391057014465,1.6302038431167605,0.311360947656825,0.144023719784938,-0.8146206314835929,0.4676587327538704,-1.7115864753723145,0.8936458230018616,1.274393081665039,0.4656509757041931,-0.5422519445419312,0.3367310166358948,0.2166167199611663,-0.2173984199762344,-0.1014104562073946,0.2916998565196991,-0.3156563969453796,0.3931143516898155,212
1734086764113308200,16.96101555893421,1.0107669420838354,4.479202638845146,5.838968019777536,-6.994476025751233,-3.626867724612355,1.7017719745635986,-1.0347479581832886,-0.0566885806620121,0.2759069307120984,0.1495925385323922,-0.8139661316657418,0.4888319306251791,-3.226401805877685,0.6307783126831055,1.3883901834487915,0.2657659649848938,-0.5631105899810791,0.4555257260799408,0.2302732914686203,-0.0619268268346786,-0.4615753089755773,0.2969371080398559,-0.6403104854691773,0.351796983525902,213
1734086764153308200,13.648892413651945,0.236437935334444,2.3087042278736827,6.142026252967119,-6.900697087335586,-3.290325739493966,1.3514304161071775,0.0934852734208107,-2.452871322631836,0.2761051593780301,0.1845158128170423,-0.7960614539233798,0.5059702462597228,-3.6583058834075928,0.4779190123081207,1.661060094833374,0.3787657618522644,-0.4167670607566833,0.0989021062850952,0.3822467029094696,-0.0185331963002681,-0.2400111176460981,0.2125994861125946,-0.468922858726792,0.3451464395955205,214
1734086764193308200,6.289499372169376,-1.2439707178026438,2.269829138295352,6.976772611278295,-6.312878494191169,-2.764531933107972,1.769711971282959,0.8174826502799988,-3.093668460845948,0.3084520460991377,0.2324398315875899,-0.7661094056010873,0.5137174513438794,-3.373955726623535,0.2839874029159546,2.2553272247314453,0.4006493091583252,-0.2737051546573639,-0.0562386512756347,0.4774571657180786,-0.1048512458801269,-1.303293844386935,0.0442230999469757,-0.6555082737967372,-0.0122521633297204,215
1734086764233308200,2.534550626567006,-1.877919193959236,0.7999782656602561,7.756624180841445,-5.624011263889074,-2.091798383744061,2.761971473693848,-0.0948551595211029,-3.0288643836975098,0.335596130307221,0.2880574133662281,-0.7236538988609313,0.5298330264539027,-2.816770553588867,-0.2300844341516494,2.70379376411438,0.3362596035003662,-0.110411137342453,-0.061498649418354,0.4472533464431762,0.022353172302246,-0.9215116185724734,-0.1120190620422363,-0.5297732679435982,-0.2401796060808002,216
1734086764273308200,-1.3456903860896825,-2.717868673871457,-1.5335785177886485,8.345887127575278,-4.832545536638796,-1.7784997654385863,2.8197691440582275,-1.8898180723190308,-3.012484073638916,0.338368568905454,0.3607901127149534,-0.6786079495054064,0.5429810935216436,-2.175574779510498,-0.4491483569145202,3.1650736331939697,0.2627068161964416,0.0417371988296508,0.0286472886800766,0.3774245977401733,-0.1395803391933441,-0.5786620577424765,-0.1088203266263008,-0.2891112851733342,0.1638520070731639,217
1734086764313308000,-2.818809466740489,-1.5568328443869948,-0.7024214161410928,8.590931563213466,-4.168601442930102,-2.2336182994902134,2.281550407409668,-3.033752679824829,-2.255743980407715,0.3093347173591841,0.4410766151576872,-0.6475602342798298,0.5389148712236688,-2.180370569229126,-0.6884719729423523,3.248973608016968,0.3616130352020263,0.278152197599411,0.0812705755233764,0.2841508090496063,-0.2314569950103759,-0.7710293806821107,-0.0359667167067527,-0.4206649507099762,0.118617173204571,218
1734086764353308000,-3.0714193691968914,-1.639301284237206,-0.1629705480635166,8.675496683081985,-3.562251460056007,-2.8664424477919934,0.6843929290771484,-1.6890984773635864,-2.092986583709717,0.2862918096275267,0.5048580824671619,-0.6255127549839329,0.5214298338236322,-2.185220241546631,-0.738933265209198,3.080467462539673,0.2918832898139953,0.5477300882339478,0.0930714607238769,0.1752248555421829,-0.2789595425128937,-0.9662906714975832,0.0017439350485801,-0.4631369688017293,0.0706513069368898,219
1734086764393308200,-5.413001784321666,-2.5659511424809693,0.6682713092580437,8.842843546533585,-2.896270307561755,-3.096140845738351,-0.6948106288909912,0.2753995656967163,-1.6166954040527344,0.2985454613367799,0.5339837664239371,-0.610508461419143,0.5030022303742212,-2.1235270500183105,-0.7285215854644775,2.574941635131836,0.1793946027755737,0.7225328087806702,0.103433609008789,0.1027571186423301,-0.263558030128479,-1.0810229660928248,0.04521319642663,-0.4698679940897971,0.113935006737709,220
1734086764433308200,-7.914852502813935,-3.988910353951156,1.0118681813240051,9.053145754614471,-2.322953410239517,-2.968978985419869,-0.9177268743515016,0.6394596099853516,-0.995962917804718,0.3284842570863783,0.5380096113570988,-0.6015990833515674,0.4906346394849434,-1.8322800397872925,-0.5980509519577026,1.9510724544525144,-0.0125041604042053,0.8905029296875,0.1220958828926086,0.1035729050636291,-0.1503890752792358,0.4648667517364024,-0.0312489233911037,-0.4021610700417309,-0.3158408501341939,221
1734086764473308200,-9.321761035454273,-7.864965313094854,1.0116796730145812,9.160602505248784,-2.0159053767614066,-2.861799005900324,-0.5046986937522888,0.4514721035957336,0.0134725496172904,0.3477860784414354,0.5359357744228961,-0.5989023177846662,0.4828392931273102,-1.4755030870437622,-0.3770722448825836,1.2865060567855835,-0.005725085735321,0.9858449697494508,0.2115501165390014,0.0336619168519973,-0.0279304534196853,0.9995920525968074,-0.0112320948392152,-0.7856310297474265,0.0411889194786548,222
1734086764513308200,-9.485445869266986,-9.292769334247708,-0.0941793359100818,9.094442810642718,-2.3346713205620646,-2.8303376997098324,0.2150411903858184,-0.228653147816658,1.7084975242614746,0.3418398489660645,0.522693166965973,-0.6091788911895862,0.488711059274475,-0.7442257404327393,-0.0481031313538551,0.3284147679805755,0.0082858204841613,1.1279292106628418,0.2450170516967773,-0.0503378063440322,0.2656649947166443,1.3917062873333692,0.2382956892251968,-0.6068919807963072,-0.2173473042868077,223
1734086764553308000,-7.694167432406544,-8.689584245145321,-0.9439347550436854,8.81435394963026,-3.138519559523463,-2.9372154814124105,0.2526790499687195,-0.4647387266159057,2.431448459625244,0.3125682277062974,0.5020135741815245,-0.6306652724857726,0.502538302825513,0.6802375912666321,0.4101801812648773,-0.8630641102790833,0.1111143827438354,1.163549542427063,0.1950250267982483,-0.21016626060009,-0.0904800295829773,1.9074469017386435,0.2988282442092895,0.1418277337264269,-0.3243871446833014,224
1734086764593308000,-7.1908806413829325,-8.589000887411832,-0.951848596908152,8.347729540571569,-4.113286382943391,-3.093005762583017,0.0006937726866453,-0.5715594291687012,3.2882399559021,0.2763470646914939,0.4718926669183716,-0.6595579707126057,0.5156868910097491,1.890527486801148,0.6088748574256897,-2.189405918121338,0.1575148105621338,0.9592462182044984,0.0720769092440605,-0.1685443520545959,-0.2877096533775329,0.6769400611430406,0.1180190742015838,0.921089666833356,-0.9116156629800796,225
1734086764633308200,-3.719927116581797,-8.09874835000634,-0.2307376778662204,7.5822233072251075,-5.289178420776128,-3.271830297860503,0.0291572250425815,-0.4358685314655304,4.022959232330322,0.230529895898337,0.4274182845528449,-0.6957948941652065,0.5291871672761428,2.6510257720947266,0.5948991775512695,-3.0530829429626465,0.2463771104812622,0.7167966961860657,0.0477234125137329,-0.119063101708889,-0.6072126030921936,0.6263280642807483,-0.1574210524559021,1.1579469966236502,-0.9406589482434092,226
1734086764673308200,-0.0570107579886913,-7.036578552943468,-0.6607812457635999,6.590039485058188,-6.475248738273978,-3.2883044627994296,0.2507893443107605,0.0750464498996734,4.142629146575928,0.1826835947041585,0.3713195033932334,-0.7278589845505234,0.5467814453715321,3.438581705093384,0.2710666060447693,-3.4185023307800293,0.4964426159858703,0.5540472269058228,0.0761653184890747,-0.117151528596878,-0.2923954129219055,-0.9642588734090328,-0.1670597642660141,0.2963211800195277,-0.7140778055347502,227
1734086764713308200,2.612278009369969,-5.4303258440881965,-1.7871023202195762,5.502120914232731,-7.483550167027115,-3.145402012513577,0.2174841910600662,0.4874843060970306,3.864656448364258,0.1403455844080039,0.3095301245984987,-0.7513733944876451,0.5656256214928568,4.572201728820801,-0.0322444327175617,-3.49373722076416,0.615847647190094,0.4042064845561981,0.1593557596206665,-0.1335787773132324,0.0754793286323547,-1.4217968896925448,-0.2140282541513443,0.021409465916641,-0.7056643435850739,228
1734086764753308200,3.811058463098109,-3.5348218935996294,-2.486256258997321,4.452228122679889,-8.180454573312401,-3.070534695316851,-0.7097555994987488,0.8791160583496094,3.3651812076568604,0.1101007250831295,0.2467390412298243,-0.7717988998546764,0.5756075079766855,5.9073100090026855,-0.3743524849414825,-3.279303789138794,0.6368610858917236,0.1581653952598571,0.1965848207473755,-0.230190023779869,0.3217303156852722,-1.5129425569951531,-0.2862058877944946,0.039383696687594,-0.559875670338422,229
1734086764793308000,3.8093440603956576,-2.4728040722280737,-1.1777540323123334,3.466484854954481,-8.546957396930456,-3.3321737074032423,-1.7107185125350952,1.1896491050720217,3.405261993408203,0.0934728492997448,0.1801261276822153,-0.7984035046048288,0.5668943668084294,4.834307670593262,-0.7729640603065491,-3.150270700454712,0.4736880660057068,-0.2004673182964325,0.3777995109558105,-0.364126980304718,0.3791811466217041,-1.1759405531495808,-0.3039721548557281,0.2263761947210878,-0.2602399589434266,230
1734086764833308000,5.49941750049293,-2.1975544679403303,0.3277911079078912,2.437960137861967,-8.672122238212824,-3.8756995698347687,-2.2164385318756104,1.2489546537399292,3.539261817932129,0.0804224327224215,0.1060194253848861,-0.8284718278423661,0.5439913545551941,3.19629168510437,-0.9951984882354736,-2.838653564453125,0.3412013053894043,-0.2501048743724823,0.4537073969841003,-0.4603835344314575,0.2265939563512802,-0.8719622825056313,-0.2516723573207855,0.5376800590127706,0.1244962943710386,231
1734086764873308200,7.665466238579153,-1.3014146065115928,2.193197149513661,1.46990903256312,-8.562844117370247,-4.548342518305779,-2.1211180686950684,1.0843676328659058,3.141932487487793,0.0674177132025849,0.0337232318908968,-0.8548471628618725,0.5133749286201654,2.18558406829834,-1.2001255750656128,-2.252798318862915,0.254766047000885,-0.3104133605957031,0.5132054090499878,-0.5084519386291504,0.0234344899654388,-0.8735048357725143,-0.1194149851799011,0.6542406650137156,0.4292755061343312,232
1734086764913308200,8.60222686420977,0.0822375537037849,3.630577100524306,0.7219915743339806,-8.315449319213629,-5.1480520402520895,-1.6719863414764404,0.9819541573524476,2.468368530273437,0.0573607190456505,-0.0273803223018147,-0.8727702527323993,0.4839754416839348,1.3607405424118042,-1.3486827611923218,-1.7111026048660278,0.1588145494461059,-0.3947492837905884,0.608940839767456,-0.5058985948562622,-0.0712442621588707,-0.8216273490190505,0.1398906111717224,0.7116141188349574,0.8481805710323155,233
1734086764953308200,9.182821351319552,0.6147960319191217,4.2115778303474185,0.2242961187777109,-8.059267988011241,-5.5828574157238,-1.0788815021514893,0.796954333782196,1.782841444015503,0.0519136749801458,-0.0745661997881527,-0.8826587122825236,0.4611491301861909,0.169981300830841,-1.204314351081848,-1.0463886260986328,0.0425420403480529,-0.615135133266449,0.7371715307235718,-0.3315596580505371,-0.1227935329079628,0.970856956499815,0.2663745284080505,1.22263033506684,0.2704943725846707,234
1734086764993308200,9.883017784887551,0.4637777874559163,4.361213096019625,-0.0811557680827565,-7.912587480491399,-5.792645244541764,-0.215984046459198,0.4828676879405975,1.064685583114624,0.0492576973852067,-0.1061911492200951,-0.8854751023699204,0.4497009184436306,-0.349529504776001,-0.8743413686752319,-0.3700332045555115,0.182683527469635,-0.5777909755706787,0.7280912399291992,-0.1519807279109954,-0.3671764731407165,1.540937063857913,0.3095513880252838,1.6382469528786836,0.295867298772186,235
1734086765033308000,10.378549724000692,0.7361123810797929,3.377279215803742,-0.2338685780367813,-7.942059658691287,-5.747987772169709,0.3904230296611786,0.1391408890485763,0.3342002332210541,0.0486267706398665,-0.1212158284935955,-0.8822542291205298,0.4522936794861603,-0.8146080374717712,-0.0892716571688652,0.2024768590927124,0.1668382883071899,-0.6500462889671326,0.7100075483322144,0.0142160058021545,-0.369166761636734,1.6227409023195505,0.4280040860176086,1.0480218831144272,-0.0984735259726643,236
